idx,t,px,py,pz,vx,vy,vz,ax,ay,az,yaw,mode,ledr,ledg,ledb
0,0.0,1.5,-1.5,-0.008,-1.3447651055020935e-08,-5.790867366504215e-09,0.7235077068989666,1.613718126602512e-07,6.949040839805058e-08,-18.056492482787597,0,70,255.0,255.0,255.0
1,0.05,1.4999999995158846,-1.5000000002084712,0.006368677448362797,-6.1859194853096296e-09,-2.6637989885919385e-09,-0.1334824548264753,1.2909745012820095e-07,5.5592326718440465e-08,-16.22311398623008,0,70,255.0,255.0,255.0
2,0.1,1.4999999993545126,-1.5000000002779617,-0.0198204300688496,-5.379060422008373e-10,-2.3163469466016844e-10,-0.8988036917240412,9.682308759615071e-08,4.169424503883035e-08,-14.389735489672557,0,70,255.0,255.0,255.0
3,0.15000000000000002,1.4999999994351987,-1.5000000002432163,-0.08198387631024344,3.4963892743054445e-09,1.5056255152910976e-09,-1.5724560037937314,6.454872506410046e-08,2.7796163359220223e-08,-12.556356993115037,0,70,255.0,255.0,255.0
4,0.2,1.4999999996772564,-1.5000000001389808,-0.17553821503442482,5.91696646420921e-09,2.5479816412618533e-09,-2.1544393910355453,3.2274362532050224e-08,1.3898081679610115e-08,-10.722978496557516,0,70,255.0,255.0,255.0
5,0.25,1.5,-1.5,-0.2959,6.723825527510467e-09,2.8954336832521074e-09,-2.644753853449483,0.0,0.0,-8.889599999999994,0,70,255.0,255.0,255.0
6,0.30000000000000004,1.5000000003227436,-1.4999999998610192,-0.4384857849655753,5.9169664642092095e-09,2.547981641261854e-09,-3.0433993910355452,-3.227436253205027e-08,-1.3898081679610128e-08,-7.056221503442475,0,70,255.0,255.0,255.0
7,0.35000000000000003,1.5000000005648013,-1.4999999997567837,-0.5987121236897568,3.4963892743054408e-09,1.5056255152910949e-09,-3.3503760037937313,-6.45487250641005e-08,-2.7796163359220243e-08,-5.222843006884958,0,70,255.0,255.0,255.0
8,0.4,1.5000000006454872,-1.4999999997220383,-0.7719955699311505,-5.379060422008385e-10,-2.3163469466016968e-10,-3.565683691724041,-9.682308759615074e-08,-4.169424503883036e-08,-3.38946451032744,0,70,255.0,255.0,255.0
9,0.45,1.5000000004841154,-1.4999999997915288,-0.9537526774483628,-6.185919485309632e-09,-2.66379898859194e-09,-3.689322454826475,-1.2909745012820098e-07,-5.5592326718440465e-08,-1.5560860137699235,0,70,255.0,255.0,255.0
10,0.5,1.5,-1.5,-1.1394,-1.3447651055020935e-08,-5.790867366504215e-09,-3.721292293101033,-1.6137181266025117e-07,-6.949040839805058e-08,0.27729248278759044,0,70,255.0,255.0,255.0
11,0.55,1.4999999991931408,-1.5000000003474518,-1.325296737586062,-1.7481946371527213e-08,-7.52812757645548e-09,-3.718151981031343,1.5881867761018131e-22,5.293955920339377e-23,-0.15168000000000997,0,70,255.0,255.0,255.0
12,0.6000000000000001,1.4999999983862817,-1.5000000006949041,-1.5115726751721243,-1.3447651055020918e-08,-5.790867366504208e-09,-3.736460293101034,1.613718126602515e-07,6.949040839805069e-08,-0.5806524827876104,0,70,255.0,255.0,255.0
13,0.65,1.4999999979828524,-1.50000000086863,-1.699300243965155,-1.3447651055020872e-09,-5.790867366504217e-10,-3.7762172293101046,3.227436253205025e-07,1.389808167961012e-07,-1.0096249655752099,0,70,255.0,255.0,255.0
14,0.7000000000000001,1.499999998386282,-1.5000000006949044,-1.8895518751721243,1.8826711477029353e-08,8.107214313105914e-09,-3.837422789658555,4.841154379807539e-07,2.084712251941518e-07,-1.4385974483628103,0,70,255.0,255.0,255.0
15,0.75,1.5,-1.5,-2.0834,4.706677869257327e-08,2.026803578276475e-08,-3.9200769741463857,6.454872506410047e-07,2.779616335922023e-07,-1.867569931150392,0,70,255.0,255.0,255.0
16,0.8,1.5000000029046925,-1.4999999987491726,-2.2821072646901777,6.401081902189965e-08,2.7564528664560065e-08,-4.0355926848390835,3.2274362532049616e-08,1.389808167960991e-08,-2.7530584965575025,0,70,255.0,255.0,255.0
17,0.8500000000000001,1.5000000058900713,-1.4999999974636,-2.487697175621748,5.0294214945778244e-08,2.1657843950725735e-08,-4.195382823802136,-5.809385255769055e-07,-2.501654702329825e-07,-3.638547061964613,0,70,255.0,255.0,255.0
18,0.9,1.5000000074231035,-1.4999999968034412,-2.7023834542082303,5.916966464209176e-09,2.5479816412618516e-09,-4.399447391035545,-1.1941514136858593e-06,-5.142290221455744e-07,-4.524035627371721,0,70,255.0,255.0,255.0
19,0.9500000000000001,1.500000005970757,-1.499999997428855,-2.928379821863142,-6.912092642280777e-08,-2.976505826383172e-08,-4.647786386539309,-1.8073643017948145e-06,-7.782925740581669e-07,-5.409524192778832,0,70,255.0,255.0,255.0
20,1.0,1.5,-1.5,-3.1679,-1.7481946371527214e-07,-7.528127576455478e-08,-4.940399810313426,-2.420577189903769e-06,-1.0423561259707586e-06,-6.295012758185933,0,70,255.0,255.0,255.0
21,1.05,1.4999999891880884,-1.5000000046558573,-3.422395803653231,-2.385613297160714e-07,-1.0272998708178475e-07,-5.2315732796123235,-1.290974501281993e-07,-5.5592326718439427e-08,-5.351926013769932,0,70,255.0,255.0,255.0
22,1.1,1.4999999780534334,-1.5000000094506956,-3.6902714223408863,-1.8772920872809206e-07,-8.084050843639874e-08,-5.47559241169042,2.16238228964737e-06,9.311714725338797e-07,-4.408839269353929,0,70,255.0,255.0,255.0
23,1.1500000000000001,1.4999999723247341,-1.5000000119176051,-3.9691691392019264,-2.2323100751334132e-08,-9.612839828396707e-09,-5.672457206547716,4.4538620294229405e-06,1.9179352717861986e-06,-3.4657525249379266,0,70,255.0,255.0,255.0
24,1.2000000000000002,1.4999999777306898,-1.5000000095896764,-4.256731237375312,2.576569942142024e-07,1.1095301874222132e-07,-5.822167664184213,6.745341769198509e-06,2.904699071038518e-06,-2.5226657805219244,0,70,255.0,255.0,255.0
25,1.25,1.5,-1.5,-4.5506,6.522110761685153e-07,2.808570672754544e-07,-5.924723784599909,9.036821508974067e-06,3.891462870290833e-06,-1.5795790361058977,0,70,255.0,255.0,255.0
26,1.3,1.500000040342953,-1.499999982627398,-4.8486039206969025,8.902344998423859e-07,3.83355419662579e-07,-5.991298196711626,4.841154379807457e-07,2.0847122519414833e-07,-1.0833974483627908,0,70,255.0,255.0,255.0
27,1.35,1.500000081896195,-1.4999999647336177,-5.149316335014711,7.0062261996659e-07,3.0170418979486923e-07,-6.033063529436188,-8.068590633012575e-06,-3.4745204199025365e-06,-0.5872158606196839,0,70,255.0,255.0,255.0
28,1.4000000000000001,1.50000010327796,-1.4999999555261385,-5.451496788984069,8.337543654112717e-08,3.5903377672325114e-08,-6.050019782773594,-1.6621296704005897e-05,-7.157512064999221e-06,-0.09103427287657695,0,70,255.0,255.0,255.0
29,1.4500000000000002,1.5000000831064837,-1.4999999642124395,-5.753904828635619,-9.61507050434001e-07,-4.1404701670505334e-07,-6.042166956723846,-2.5174002774999218e-05,-1.0840503710095906e-05,0.4051473148665299,0,70,255.0,255.0,255.0
30,1.5,1.5,-1.5,-6.0553,-2.434024840958789e-06,-1.048146993337263e-06,-6.009505051286942,-3.3726708845992505e-05,-1.452349535519257e-05,0.9013289026096771,0,70,255.0,255.0,255.0
31,1.55,1.4999998494400988,-1.5000000648345508,-6.354407713559164,-3.322376669653472e-06,-1.4306916915685316e-06,-5.94998593354117,-1.8073643017947903e-06,-7.782925740581558e-07,1.4794358072211968,0,70,255.0,255.0,255.0
32,1.6,1.4999996943617868,-1.5000001316148335,-6.649816837600274,-2.614761271138268e-06,-1.1259762507430788e-06,-5.861561470564822,3.0111980242402924e-05,1.2966910207076259e-05,2.0575427118327165,0,70,255.0,255.0,255.0
33,1.6500000000000001,1.4999996145634253,-1.5000001659778404,-6.940082104861803,-3.1117864541317676e-07,-1.3400067086090396e-07,-5.744231662357898,6.203132478660064e-05,2.6712112988210677e-05,2.635649616444236,0,70,255.0,255.0,255.0
34,1.7000000000000002,1.499999689843376,-1.5000001335605648,-7.223758248082222,3.5883712075218016e-06,1.5452350480779915e-06,-5.5979965089203985,9.395066933079835e-05,4.045731576934509e-05,3.213756521055756,0,70,255.0,255.0,255.0
35,1.75,1.5,-1.5,-7.4994,9.083888287666641e-06,3.911730906073597e-06,-5.422856010252322,0.00012587001387499592,5.4202518550479446e-05,3.7918634256672945,0,70,255.0,255.0,255.0
36,1.8,1.5000005618966514,-1.4999997580343978,-7.765510825066444,1.2399272178771501e-05,5.339411346611546e-06,-5.215734069123688,6.745341769198382e-06,2.904699071038468e-06,4.493014219478041,0,70,255.0,255.0,255.0
37,1.85,1.5000011406566578,-1.4999995088070481,-8.020389114584193,9.75842246458648e-06,4.2022008131774446e-06,-4.973554588304518,-0.00011237933033659916,-4.839312040840251e-05,5.194165013288787,0,70,255.0,255.0,255.0
38,1.9000000000000001,1.500001438468338,-1.4999993805624996,-8.26228199156872,1.1613391451115723e-06,5.000993057712904e-07,-4.696317567794809,-0.0002315040024423967,-9.969093988784347e-05,5.895315807099534,0,70,255.0,255.0,255.0
39,1.9500000000000002,1.500001157520012,-1.4999995015453005,-8.489436579035498,-1.3391977779653211e-05,-5.766893175606913e-06,-4.384023007594563,-0.00035062867454819423,-0.00015098875936728445,6.596466600910279,0,70,255.0,255.0,255.0
40,2.0,1.5,-1.5,-8.7001,-3.3901528309707775e-05,-1.4598776630957125e-05,-4.0366709077037815,-0.0004697533466539914,-0.0002022865788467252,7.297617394721044,0,70,255.0,255.0,255.0
41,2.0500000000000003,1.4999979029732946,-1.5000009030278572,-8.892870586175063,-4.627471204543255e-05,-1.9926953694877656e-05,-3.675333789964089,-2.5174002774996907e-05,-1.0840503710094873e-05,7.155867314866585,0,70,255.0,255.0,255.0
42,2.1,1.499995743011582,-1.5000018331569738,-9.067751504062954,-3.641892858720766e-05,-1.5682827001966698e-05,-3.321084176217122,0.00041940534110399366,0.00018060557142653377,7.014117235012128,0,70,255.0,255.0,255.0
43,2.15,1.4999946315632224,-1.5000023117721615,-9.225097128863318,-4.334177935033328e-06,-1.8663965522243382e-06,-2.9739220664628783,0.0008639846849829841,0.00037205164656316236,6.87236715515767,0,70,255.0,255.0,255.0
44,2.2,1.499995680076575,-1.5000018602582328,-9.36526183577579,4.9979539911091005e-05,2.1522337654349666e-05,-2.6338474607013542,0.0013085640288619787,0.0005634977216997927,6.730617075303211,0,70,255.0,255.0,255.0
45,2.25,1.5,-1.5,-9.4886,0.00012652222495116447,5.4483375617754904e-05,-2.3008603589325567,0.0017531433727409691,0.0007549437968364213,6.588866995448765,0,70,255.0,255.0,255.0
46,2.3000000000000003,1.5000078262101704,-1.4999966298541734,-9.595583630233316,0.0001726995760029587,7.436840343289907e-05,-1.9820187710199417,9.395066933078934e-05,4.045731576934116e-05,6.164796521055759,0,70,255.0,255.0,255.0
47,2.35,1.500015887297014,-1.4999931585650574,-9.687155269163988,0.00013591729188424417,5.852910719468933e-05,-1.68438070682698,-0.0015652420340793757,-0.0006740291652977327,5.740726046662758,0,70,255.0,255.0,255.0
48,2.4000000000000004,1.5000200352787727,-1.4999913723488547,-9.764375092978007,1.6175372595020213e-05,6.965486903125429e-06,-1.4079461663536659,-0.003224434737489556,-0.0013885156463648127,5.316655572269752,0,70,255.0,255.0,255.0
49,2.45,1.5000161221736874,-1.4999930574217684,-9.82830327786135,-0.00018652618186471096,-8.032245744179172e-05,-1.1527151496000043,-0.004883627440899721,-0.0021030021274318867,4.892585097876751,0,70,255.0,255.0,255.0
50,2.5,1.5,-1.5,-9.88,-0.0004721873714949501,-0.00020333472584006248,-0.9186876565659924,-0.0065428201443098865,-0.002817488608498961,4.46851462348375,0,70,255.0,255.0,255.0
51,2.5500000000000003,1.499970792186024,-1.5000125775554487,-9.920573292891683,-0.0006445235919664023,-0.0002775466600367187,-0.7087351259561411,-0.00035062867454816165,-0.00015098875936727036,3.929586600910259,0,70,255.0,255.0,255.0
52,2.6,1.4999407078003617,-1.500025532582796,-9.951322619281093,-0.0005072502389497691,-0.0002184336017767907,-0.525728996474966,0.005841562795213508,0.0025155110897643967,3.3906585783367724,0,70,255.0,255.0,255.0
53,2.6500000000000004,1.4999252273216872,-1.500032198832419,-9.973595299224659,-6.0367312445048105e-05,-2.5995551060277607e-05,-0.3696692681224637,0.012033754264975232,0.005182010938896087,2.8517305557632815,0,70,255.0,255.0,255.0
54,2.7,1.4999398312286751,-1.5000259100546944,-9.988738652778817,0.0006961251875477524,0.00029976749211281734,-0.24055594089863735,0.018225945734736904,0.007848510788027754,2.312802533189795,0,70,255.0,255.0,255.0
55,2.75,1.5,-1.5,-9.9981,0.0017622272610286359,0.000758855527742495,-0.138389014803485,0.02441813720449857,0.010515010637159419,1.7738745106163094,0,70,255.0,255.0,255.0
56,2.8000000000000003,1.500109005045734,-1.4999530599240314,-10.002983998199952,0.0024053947918626496,0.0010358182367139757,-0.060608725155495195,0.001308564028861852,0.0005634977216997378,1.3373370753032663,0,70,255.0,255.0,255.0
57,2.85,1.5002212815015399,-1.499904711103758,-10.004524653711643,0.0018930836639148314,0.0008152052999124734,-0.004655307273158077,-0.021801009146774658,-0.009388015193759853,0.9007996399902269,0,70,255.0,255.0,255.0
58,2.9000000000000004,1.5002790554344791,-1.4998798323214697,-10.003813310123363,0.00022529387718517226,9.70167173379847e-05,0.029471238843527398,-0.04491058232241137,-0.01933952810921953,0.4642622046771838,0,70,255.0,255.0,255.0
59,2.95,1.500224552911612,-1.499903302359454,-10.001941311023387,-0.0025979745683262995,-0.0011187475110094776,0.04177091319456053,-0.06802015549804788,-0.029291041024679124,0.027724769364144475,0,70,255.0,255.0,255.0
60,3.0,1.5,-1.5,-10.0,-0.0065767216726195935,-0.0028320873851299176,0.032243715779941826,-0.09112972867368443,-0.039242553940138716,-0.4088126659488951,0,70,255.0,255.0,255.0
61,3.0500000000000003,1.4995931876310409,-1.5001751827484264,-9.99886111430851,-0.0089770555754842,-0.0038657262868191833,0.014066026578137393,-0.004883627440899263,-0.002103002127431676,-0.3182949021232783,0,70,255.0,255.0,255.0
62,3.1,1.4991741661934788,-1.5003556230021713,-9.998517965872331,-0.0070650844167095585,-0.0030423875978731027,0.0004142255676139236,0.08136247379188513,0.03503654968527503,-0.22777713829766236,0,70,255.0,255.0,255.0
63,3.1500000000000004,1.498958550940397,-1.500448471881703,-9.998744260281896,-0.0008408081962956379,-0.00036207131829166066,-0.008711687251628818,0.16760857502467033,0.07217610149798206,-0.13725937447204556,0,70,255.0,255.0,255.0
64,3.2,1.4991619571248764,-1.50036088050749,-9.999313703127639,0.009695773085757448,0.0041752225519250934,-0.013311711879590689,0.2538546762574547,0.10931565331068878,-0.04674161064642962,0,70,255.0,255.0,255.0
65,3.25,1.5,-1.5,-10.0,0.02454465942944974,0.010569494012777176,-0.013385848316271763,0.34010077749023926,0.14645520512339544,0.04377615317918636,0,70,255.0,255.0,255.0
66,3.3000000000000003,1.501759844430104,-1.4992422090822632,-10.000649144566001,0.04799882751007431,0.020667086910562776,-0.013271381157047414,0.5980659457347384,0.25744851078802644,-0.039197466810212384,0,70,255.0,255.0,255.0
67,3.35,1.5050148537245445,-1.4978407968875564,-10.001396282799028,0.08435125400292351,0.03631434509157979,-0.017305594997292967,0.8560311139792354,0.3684418164526564,-0.12217108679961038,0,70,255.0,255.0,255.0
68,3.4000000000000004,1.5104099408039333,-1.4955182801517182,-10.002448848749056,0.13360193890799804,0.0575112685558285,-0.0254884898370085,1.1139962822237344,0.4794351221172874,-0.2051447067890091,0,70,255.0,255.0,255.0
69,3.45,1.5185900185888812,-1.4919971756105863,-10.004014276466053,0.19575088222529696,0.08425785730330852,-0.03782006567619386,1.3719614504682314,0.5904284277819174,-0.2881183267784071,0,70,255.0,255.0,255.0
70,3.5,1.5302,-1.487,-10.0063,0.2707980839548207,0.11655411133402002,-0.054300322514849106,1.6299266187127288,0.7014217334465471,-0.371091946767805,0,70,255.0,255.0,255.0
71,3.5500000000000003,1.5457482346485443,-1.4803079809225206,-10.00946950742748,0.3505497455351881,0.150877378644567,-0.07229250194994091,1.5601398445019516,0.6715089589753245,-0.3485952306358636,0,70,255.0,255.0,255.0
72,3.6,1.5651968189083434,-1.4719371894476028,-10.01351050293155,0.42681206840501607,0.18370500723155256,-0.08915984557843551,1.4903530702911751,0.6415961845041022,-0.32609851450392247,0,70,255.0,255.0,255.0
73,3.6500000000000004,1.5883712858438703,-1.4619624075114246,-10.018366744721881,0.49958505256430574,0.21503699709497726,-0.10490235340033319,1.420566296080398,0.6116834100328795,-0.3036017983719811,0,70,255.0,255.0,255.0
74,3.7,1.615097168519598,-1.4504584170501644,-10.023981991008139,0.5688686980130561,0.2448733482348406,-0.11952002541563367,1.3507795218696215,0.5817706355616572,-0.28110508224003994,0,70,255.0,255.0,255.0
75,3.75,1.6452,-1.4375,-10.0303,0.6346630047512674,0.27321406065114273,-0.1330128616243371,1.280992747658841,0.5518578610904337,-0.25860836610809845,0,70,255.0,255.0,255.0
76,3.8000000000000003,1.6785392169757198,-1.4231474672276547,-10.037276025724077,0.6990021903491751,0.300927398511171,-0.14607061104319968,1.2925746762574537,0.5566756533106902,-0.26370161064640163,0,70,255.0,255.0,255.0
77,3.85,1.7151098706420829,-1.4074032453220326,-10.04491130547477,0.7639204723770129,0.32888162598221177,-0.15938302268897728,1.3041566048560664,0.5614934455309468,-0.26879485518470475,0,70,255.0,255.0,255.0
78,3.9000000000000004,1.7549409158205869,-1.3902552898025833,-10.053218572363424,0.8294178508347818,0.3570767430642657,-0.17295009656167015,1.3157385334546792,0.5663112377512034,-0.27388809972300787,0,70,255.0,255.0,255.0
79,3.95,1.7980613073327267,-1.3716915561887557,-10.062210559501384,0.8954943257224809,0.3855127497573322,-0.1867718326612781,1.327320462053292,0.57112902997146,-0.278981344261311,0,70,255.0,255.0,255.0
80,4.0,1.8445,-1.3517,-10.0719,0.9621498970401106,0.4141896460614115,-0.20084823098780114,1.3389023906519082,0.5759468221917174,-0.2840745887996139,0,70,255.0,255.0,255.0
81,4.05,1.894276497448577,-1.3302725501668604,-10.082295989676213,1.028817493068114,0.4428690273107521,-0.21496105387725203,1.3278014504682336,0.5712284277819111,-0.2804383267784248,0,70,255.0,255.0,255.0
82,4.1000000000000005,1.9473724985233256,-1.307417029264266,-10.093393075169375,1.0949300420869346,0.4713124888396029,-0.22889206366564377,1.3167005102845588,0.5665100333721046,-0.2768020647572356,0,70,255.0,255.0,255.0
83,4.15,2.0037602508737846,-1.2831452332782416,-10.105182165824425,1.1604875440965705,0.4995200306479629,-0.24264126035297576,1.3055995701008842,0.5617916389622981,-0.2731658027360465,0,70,255.0,255.0,255.0
84,4.2,2.063412002149496,-1.2574689581948113,-10.11765417098632,1.2254899990970225,0.5274916527358325,-0.2562086439392483,1.2944986299172097,0.5570732445524917,-0.2695295407148574,0,70,255.0,255.0,255.0
85,4.25,2.1263,-1.2304,-10.1308,1.289937407088291,0.5552273551032119,-0.2695942144244614,1.2833976897335386,0.5523548501426863,-0.2658932786936665,0,70,255.0,255.0,255.0
86,4.3,2.192399593229972,-1.2019487321049032,-10.144612015571068,1.3540158373783697,0.5828124922458203,-0.282885173447804,1.27973952186962,0.551050635561656,-0.265745082240041,0,70,255.0,255.0,255.0
87,4.3500000000000005,2.2616985352646175,-1.1721198376209017,-10.159088393847737,1.4179113592752537,0.6103324186593777,-0.29616872264846567,1.276081354005701,0.5497464209806256,-0.26559688578641544,0,70,255.0,255.0,255.0
88,4.4,2.3341876806842774,-1.1409165770844492,-10.17422876433887,1.4816239727789404,0.6377871343438831,-0.3094448620264457,1.2724231861417823,0.5484422063995954,-0.2654486893327899,0,70,255.0,255.0,255.0
89,4.45,2.4098578840692917,-1.1083422110319978,-10.190032756553336,1.5451536778894315,0.6651766392993371,-0.32271359158174456,1.2687650182778636,0.547137991818565,-0.26530049287916435,0,70,255.0,255.0,255.0
90,4.5,2.4887,-1.0744,-10.2065,1.6085004746067264,0.6925009335257396,-0.3359749113143621,1.2651068504139449,0.5458337772375375,-0.26515229642553706,0,70,255.0,255.0,255.0
91,4.55,2.570703529631537,-1.0390941214135272,-10.223629548039515,1.671583157418407,0.7197050037059647,-0.3491942523315324,1.2582004620532918,0.542329029971466,-0.263621344261278,0,70,255.0,255.0,255.0
92,4.6000000000000005,2.6558525604182077,-1.0024324202521249,-10.241418149439683,1.7343205208120562,0.7467338365228865,-0.36233704574049,1.2512940736926383,0.5388242827053945,-0.2620903920970189,0,70,255.0,255.0,255.0
93,4.65,2.744129826389109,-0.9644236583839598,-10.259861976820094,1.7967125647876716,0.7735874319765044,-0.3754032915412345,1.2443876853319853,0.5353195354393231,-0.2605594399327598,0,70,255.0,255.0,255.0
94,4.7,2.8355180615733406,-0.9250765976771964,-10.278957202800337,1.8587592893452545,0.8002657900668186,-0.3883929897337659,1.237481296971332,0.5318147881732516,-0.2590284877685008,0,70,255.0,255.0,255.0
95,4.75,2.93,-0.8844,-10.2987,1.9204606944848044,0.8267689107938293,-0.4013061403180844,1.2305749086106825,0.5283100409071819,-0.2574975356042417,0,70,255.0,255.0,255.0
96,4.800000000000001,3.0275590882438825,-0.8424019822409885,-10.319086592270873,1.9818595329480027,0.8531354929303215,-0.41414581722606286,1.2253786299172116,0.5263532445524914,-0.2560895407148884,0,70,255.0,255.0,255.0
97,4.8500000000000005,3.128181623062557,-0.7990880813705963,-10.340113408393533,2.0429985574765266,0.8794042352490787,-0.42691509438957337,1.2201823512237406,0.524396448197801,-0.25468154582553504,0,70,255.0,255.0,255.0
98,4.9,3.2318546137592903,-0.7544631893797097,-10.361776928380754,2.1038777680703764,0.9055751377501015,-0.4396139718086163,1.2149860725302697,0.5224396518431105,-0.2532735509361817,0,70,255.0,255.0,255.0
99,4.95,3.3385650696373497,-0.7085321982592154,-10.384073632245318,2.1644971647295526,0.9316482004333896,-0.4522424494831915,1.209789793836799,0.52048285548842,-0.2518655560468284,0,70,255.0,255.0,255.0
100,5.0,3.4483,-0.6613,-10.407,2.224856747454056,0.9576234232989433,-0.464800527413299,1.2045935151433298,0.5185260591337251,-0.2504575611574751,0,70,255.0,255.0,255.0
101,5.050000000000001,3.5610457173929397,-0.6127715496225162,-10.430552882876997,2.2849147107895864,0.9834970245727509,-0.47731047876421523,1.197725018277866,0.5164179918185621,-0.24994049287916534,0,70,255.0,255.0,255.0
102,5.1000000000000005,3.6767857473315724,-0.562952054265487,-10.45473061698619,2.344629249281843,1.0092652224807999,-0.48979457670121573,1.1908565214124023,0.5143099245033991,-0.24942342460085562,0,70,255.0,255.0,255.0
103,5.15,3.7955029185737352,-0.5118467840971993,-10.479531909656886,2.4040003629308266,1.0349280170230906,-0.5022528212243007,1.1839880245469387,0.5122018571882361,-0.2489063563225459,0,70,255.0,255.0,255.0
104,5.2,3.917180059877266,-0.459461009285941,-10.504955468218387,2.4630280517365364,1.0604854081996233,-0.5146852123334702,1.177119527681475,0.5100937898730731,-0.24838928804423616,0,70,255.0,255.0,255.0
105,5.25,4.0418,-0.4058,-10.531,2.5217123156989736,1.0859373960103977,-0.5270917500287242,1.1702510308160186,0.5079857225579119,-0.24787221976592555,0,70,255.0,255.0,255.0
106,5.300000000000001,4.169346842184369,-0.35086941926894216,-10.557663476221148,2.580129623893658,1.1112604087786773,-0.539428267717085,1.1664412969713225,0.5049347881732558,-0.24558848776849762,0,70,255.0,255.0,255.0
107,5.3500000000000005,4.299809787611164,-0.2946765015674523,-10.58494092366171,2.638356445396106,1.1364308748277236,-0.5516505988055741,1.1626315631266266,0.5018838537885998,-0.24330475577106972,0,70,255.0,255.0,255.0
108,5.4,4.433179311945775,-0.23722887423149078,-10.612826632991704,2.6963927802063203,1.161448794157537,-0.5637587432941918,1.1588218292819306,0.4988329194039437,-0.24102102377364182,0,70,255.0,255.0,255.0
109,5.45,4.569445890853591,-0.17853416459701948,-10.641314894881132,2.7542386283242988,1.1863141667681176,-0.5757527011829382,1.1550120954372347,0.49578198501928766,-0.23873729177621392,0,70,255.0,255.0,255.0
110,5.5,4.7086,-0.1186,-10.6704,2.8118939897500432,1.211026992659466,-0.5876324724718132,1.1512023615925386,0.4927310506346494,-0.23645355977878602,0,70,255.0,255.0,255.0
111,5.550000000000001,4.850630113869597,-0.0574339733017101,-10.700077212238428,2.869238793635778,1.235589340312543,-0.5994564503674529,1.1425897938368108,0.4897628554884235,-0.23650555604679618,0,70,255.0,255.0,255.0
112,5.6000000000000005,4.9955167022237825,0.0049564605352997535,-10.73034568836697,2.926152969133725,1.2600032782083084,-0.6112830280764929,1.1339772260810832,0.4867946603421977,-0.23655755231480632,0,70,255.0,255.0,255.0
113,5.65,5.143238233643171,0.0685638810231651,-10.761205558376298,2.9826365162438857,1.2842688063467627,-0.6231122055989334,1.1253646583253556,0.48382646519597183,-0.2366095485828165,0,70,255.0,255.0,255.0
114,5.7,5.293773176708373,0.13338086767402038,-10.792656952257087,3.03868943496626,1.3083859247279055,-0.6349439829347745,1.1167520905696278,0.480858270049746,-0.23666154485082663,0,70,255.0,255.0,255.0
115,5.75,5.4471,0.1994,-10.8247,3.0943117253008485,1.3323546333517373,-0.646778360084016,1.1081395228138966,0.4778900749035273,-0.23671354111883502,0,70,255.0,255.0,255.0
116,5.800000000000001,5.6031999023372565,0.26661491247578784,-10.857334074825152,3.149667201563234,1.3562382299711526,-0.6585699308130937,1.106079527681495,0.47745378987307135,-0.2349492880442664,0,70,255.0,255.0,255.0
117,5.8500000000000005,5.762065003493714,0.3350234594262573,-10.890555522870413,3.204919678068999,1.3801000123390448,-0.6702732888884427,1.1040195325490934,0.4770175048426154,-0.2331850349696978,0,70,255.0,255.0,255.0
118,5.9,5.923690153481545,0.4046245501388332,-10.924359933503101,3.2600691548181433,1.403939980455414,-0.6818884343100635,1.101959537416692,0.4765812198121594,-0.2314207818951292,0,70,255.0,255.0,255.0
119,5.95,6.088070202312917,0.47541709390093945,-10.958742896090525,3.3151156318106674,1.4277581343202603,-0.6934153670779556,1.0998995422842903,0.47614493478170344,-0.22965652882056062,0,70,255.0,255.0,255.0
120,6.0,6.2552,0.5474,-10.9937,3.3700591090465717,1.451554473933584,-0.7048540871921194,1.0978395471518887,0.4757086497512457,-0.22789227574599025,0,70,255.0,255.0,255.0
121,6.050000000000001,6.42506947678139,0.6205695233985644,-11.029226488460969,3.4246044001113,1.4751697398028478,-0.7161838263801745,1.0839720954372132,0.4689019850192944,-0.22529729177621075,0,70,255.0,255.0,255.0
122,6.1000000000000005,6.597648883801369,0.6949113017596756,-11.065316220151377,3.4784563185902933,1.4984446724355136,-0.7273838163697406,1.0701046437225379,0.4620953202873433,-0.2227023078064313,0,70,255.0,255.0,255.0
123,6.15,6.772903552430656,0.7704083184215051,-11.101962707611301,3.5316148644835534,1.521379271831582,-0.7384540571608177,1.0562371920078624,0.45528865555539216,-0.22010732383665185,0,70,255.0,255.0,255.0
124,6.2,6.9507988140399615,0.8470435567222233,-11.139159463380818,3.5840800377910793,1.5439735379910526,-0.7493945487534057,1.042369740293187,0.448481990823441,-0.21751233986687238,0,70,255.0,255.0,255.0
125,6.25,7.1313,0.9248,-11.1769,3.6358518385128717,1.566227470913926,-0.7602052911475049,1.0285022885785118,0.44167532609148985,-0.2149173558970885,0,70,255.0,255.0,255.0
126,6.300000000000001,7.314363790537199,1.0036573939299611,-11.215175971330977,3.686411197991576,1.5879468108174573,-0.7707747636662028,0.9938720905696246,0.4270982700497507,-0.20786154485082278,0,70,255.0,255.0,255.0
127,6.3500000000000005,7.499912261300819,1.083582533535045,-11.253971596524082,3.7352390475698347,1.6089372979189012,-0.7809914456325873,0.959241892560738,0.4125212140080118,-0.2008057338045572,0,70,255.0,255.0,255.0
128,6.4,7.68785883679584,1.164538976175149,-11.2932692360517,3.7823353872476493,1.6291989322182583,-0.7908553370466586,0.9246116945518513,0.39794415796627286,-0.19374992275829164,0,70,255.0,255.0,255.0
129,6.45,7.878116941527241,1.2464902792101689,-11.333051250386209,3.8277002170250194,1.6487317137155284,-0.8003664379084163,0.8899814965429647,0.383367101924534,-0.18669411171202605,0,70,255.0,255.0,255.0
130,6.5,8.0706,1.3294,-11.3733,3.871333536901946,1.6675356424107113,-0.8095247482178609,0.8553512985340888,0.36879004588279685,-0.17963830066575603,0,70,255.0,255.0,255.0
131,6.550000000000001,8.265232961069831,1.4132361008815981,-11.414000026215126,3.913926807922406,1.6858750169273242,-0.8184611189550194,0.8483795422842817,0.36478493478170715,-0.17781652882057802,0,70,255.0,255.0,255.0
132,6.6000000000000005,8.46198687099537,1.497984164100149,-11.455144593752298,3.956171491130375,1.7040141358888823,-0.8273064010999187,0.8414077860344746,0.3607798236806175,-0.17599475697540007,0,70,255.0,255.0,255.0
133,6.65,8.660844300385993,1.5836341768779014,-11.496729148181911,3.998067586525853,1.7219529992953857,-0.8360605946525593,0.8344360297846677,0.35677471257952786,-0.17417298513022209,0,70,255.0,255.0,255.0
134,6.7,8.861787819851077,1.6701761264371024,-11.53874913507435,4.039615094108841,1.739691607146835,-0.844723699612941,0.8274642735348606,0.3527696014784382,-0.17235121328504413,0,70,255.0,255.0,255.0
135,6.75,9.0648,1.7576,-11.5812,4.080814013879339,1.7572299594432297,-0.8532957159810636,0.8204925172850466,0.34876449037734325,-0.17052944143986704,0,70,255.0,255.0,255.0
136,6.800000000000001,9.269860365183495,1.8458958025436536,-11.624076723808532,4.121481570318795,1.774569121473249,-0.8617487605137308,0.8062097402931867,0.34480199082342966,-0.1675923398668187,0,70,255.0,255.0,255.0
137,6.8500000000000005,9.476936254717721,1.935053610064364,-11.66737242846673,4.161434987908658,1.7917101585255728,-0.8700549499677456,0.7919269633013271,0.3408394912695161,-0.1646552382937704,0,70,255.0,255.0,255.0
138,6.9,9.6859919616602,2.025063516313249,-11.711079771220662,4.200674266648928,1.8086530706002006,-0.8782142843431079,0.7776441863094674,0.3368769917156026,-0.16171813672072213,0,70,255.0,255.0,255.0
139,6.95,9.896991779068454,2.1159156150414224,-11.755191409316398,4.239199406539604,1.825397857697133,-0.8862267636398177,0.7633614093176078,0.33291449216168906,-0.15878103514767383,0,70,255.0,255.0,255.0
140,7.0,10.1099,2.2076,-11.7997,4.277010407580688,1.8419445198163695,-0.8940923878578753,0.7490786323257197,0.3289519926077684,-0.15584393357462645,0,70,255.0,255.0,255.0
141,7.050000000000001,10.3246823781962,2.3001054889437946,-11.844598678550753,4.3141949108024065,1.8582164971796773,-0.9018398389900427,0.7383014965429906,0.32192710192453644,-0.15405411171206534,0,70,255.0,255.0,255.0
142,7.1000000000000005,10.541310510133757,2.393415795642399,-11.889882492380785,4.350840557234988,1.8741372300088235,-0.9094977990290819,0.7275243607602617,0.3149022112413046,-0.1522642898495043,0,70,255.0,255.0,255.0
143,7.15,10.759757452973211,2.487513357869107,-11.935546966935442,4.386947346878433,1.8897067183038079,-0.917066267974993,0.7167472249775328,0.3078773205580727,-0.15047446798694322,0,70,255.0,255.0,255.0
144,7.2,10.979996263875112,2.58238061339721,-11.981587627660065,4.422515279732741,1.9049249620646305,-0.9245452458277761,0.705970089194804,0.30085242987484084,-0.14868464612438217,0,70,255.0,255.0,255.0
145,7.25,11.202,2.678,-12.028,4.4575443557979115,1.9197919612912915,-0.9319347325874313,0.6951929534120538,0.29382753919160365,-0.14689482426182732,0,70,255.0,255.0,255.0
146,7.300000000000001,11.425740522031715,2.774355041681175,-12.074778961988459,4.491962786471586,1.934372889808043,-0.9391958835261032,0.6815442735348581,0.2894096014784444,-0.14355121328504458,0,70,255.0,255.0,255.0
147,7.3500000000000005,11.651184904747264,2.8714336073660442,-12.12191680201013,4.525698783151397,1.948732921439136,-0.9462898539159359,0.6678955936576627,0.2849916637652853,-0.1402076023082619,0,70,255.0,255.0,255.0
148,7.4,11.878299026446955,2.969224652210327,-12.169405161037572,4.558752345837351,1.9628720561845714,-0.9532166437569293,0.6542469137804672,0.28057372605212616,-0.13686399133147925,0,70,255.0,255.0,255.0
149,7.45,12.1070487654311,3.0677171313697396,-12.217235680043345,4.591123474529444,1.9767902940443485,-0.9599762530490837,0.6405982339032718,0.27615578833896703,-0.13352038035469657,0,70,255.0,255.0,255.0
150,7.5,12.3374,3.1669,-12.2654,4.622812169227677,1.990487635018468,-0.9665686817923989,0.6269495540260692,0.27173785062581146,-0.13017676937790945,0,70,255.0,255.0,255.0
151,7.550000000000001,12.56931953367696,3.266761544331514,-12.313890273495414,4.653873943311268,2.003923943588155,-0.9730246269055378,0.6155214093175714,0.2657144921616747,-0.1280610351476415,0,70,255.0,255.0,255.0
152,7.6000000000000005,12.802777870877206,3.3672873748934298,-12.362700699578694,4.6843643101594346,2.017059084234636,-0.979374785307163,0.6040932646090736,0.25969113369753805,-0.1259453009173736,0,70,255.0,255.0,255.0
153,7.65,13.037746441238976,3.4684624332895897,-12.411825988914272,4.714283269772176,2.029893056957909,-0.9856191569972751,0.592665119900576,0.25366777523340145,-0.12382956668710568,0,70,255.0,255.0,255.0
154,7.7,13.274196674400498,3.5702716611238334,-12.461260852166564,4.743630822149491,2.042425861757976,-0.9917577419758735,0.5812369751920783,0.2476444167692648,-0.12171383245683777,0,70,255.0,255.0,255.0
155,7.75,13.5121,3.6727,-12.511,4.772406967291383,2.054657498634836,-0.9977905402429587,0.5698088304835522,0.2416210583051388,-0.1195980982265672,0,70,255.0,255.0,255.0
156,7.800000000000001,13.751426943260473,3.7757331809927783,-12.561037544029887,4.800557440283342,2.0666353358393357,-1.0036816088517335,0.5562100891947891,0.23749242987484176,-0.11604464612442746,0,70,255.0,255.0,255.0
157,7.8500000000000005,13.99214441174393,3.8793600930602428,-12.611365199675088,4.828027976210862,2.07840674162232,-1.0093950048554015,0.5426113479060262,0.23336380144454477,-0.11249119402228779,0,70,255.0,255.0,255.0
158,7.9,14.23421840859715,3.983570414631318,-12.661974083305344,4.854818575073945,2.08997171598379,-1.0149307282539624,0.5290126066172631,0.22923517301424778,-0.10893774192014812,0,70,255.0,255.0,255.0
159,7.95,14.477614936966914,4.088353824134929,-12.712855311290397,4.880929236872588,2.101330258923745,-1.0202887790474162,0.5154138653285002,0.2251065445839508,-0.10538428981800843,0,70,255.0,255.0,255.0
160,8.0,14.7223,4.1937,-12.764,4.906359961606794,2.1124823704421853,-1.025469157235763,0.5018151240397088,0.22097791615365736,-0.10183083771586787,0,70,255.0,255.0,255.0
161,8.05,14.96824069328117,4.29959773169738,-12.815400350385033,4.931176295555369,2.123374713054501,-1.0305369376875275,0.49083823390326686,0.2147157883389723,-0.10088038035470283,0,70,255.0,255.0,255.0
162,8.1,15.215408482147089,4.406032252865603,-12.86705290172095,4.955443784997121,2.1339539492760826,-1.0355571952712335,0.4798613437668252,0.2084536605242875,-0.09992992299353781,0,70,255.0,255.0,255.0
163,8.15,15.463775924372433,4.512987908185141,-12.918955277864354,4.979162429932051,2.1442200791069297,-1.040529929986881,0.4688844536303832,0.20219153270960244,-0.09897946563237275,0,70,255.0,255.0,255.0
164,8.200000000000001,15.713315577731853,4.620449042336454,-12.97110510267184,5.002332230360159,2.1541731025470434,-1.0454551418344706,0.4579075634939412,0.1959294048949174,-0.09802900827120771,0,70,255.0,255.0,255.0
165,8.25,15.964,4.7284,-13.0235,5.0249531862814445,2.163813019596422,-1.0503328308140019,0.44693067335747827,0.18966727708024322,-0.09707855091003914,0,70,255.0,255.0,255.0
166,8.3,16.21580068361487,4.83682549221771,-13.076136254429983,5.046961377495182,2.17316181194266,-1.0550826403981728,0.4333969751920376,0.18428441676928378,-0.09291383245679968,0,70,255.0,255.0,255.0
167,8.35,16.468684859667714,4.945711695477339,-13.129004793441105,5.068292883800647,2.1822414612733505,-1.0596242140596819,0.4198632770265975,0.17890155645832453,-0.08874911400356036,0,70,255.0,255.0,255.0
168,8.4,16.72261869391313,5.055045152628118,-13.182095205237239,5.0889477051978425,2.1910519675884927,-1.063957551798529,0.40632957886115684,0.17351869614736512,-0.0845843955503209,0,70,255.0,255.0,255.0
169,8.450000000000001,16.9775683521057,5.164812406519266,-13.235397078022249,5.108925841686765,2.199593330888087,-1.0680826536147139,0.39279588069571614,0.16813583583640568,-0.08041967709708145,0,70,255.0,255.0,255.0
170,8.5,17.2335,5.275,-13.2889,5.128227293267414,2.2078655511721337,-1.071999519508237,0.3792621825303186,0.16275297552544288,-0.07625495864383858,0,70,255.0,255.0,255.0
171,8.55,17.490380572259372,5.38559469943179,-13.34259463189504,5.146898194463886,2.2158820391748684,-1.0757725007197831,0.3675738653285818,0.1579065445839347,-0.07466428981801021,0,70,255.0,255.0,255.0
172,8.6,17.748180079182053,5.496584165225035,-13.396475924514622,5.164984679800272,2.223656205630527,-1.079465948490038,0.3558855481268453,0.15306011364242667,-0.0730736209921819,0,70,255.0,255.0,255.0
173,8.65,18.006869299975058,5.60795628130239,-13.450539901186689,5.182486749276571,2.231188050539111,-1.0830798628190015,0.3441972309251084,0.1482136827009185,-0.07148295216635353,0,70,255.0,255.0,255.0
174,8.700000000000001,18.266419013845383,5.719698931586498,-13.50478258523917,5.1994044028927835,2.238477573900619,-1.0866142437066735,0.33250891372337155,0.1433672517594103,-0.06989228334052516,0,70,255.0,255.0,255.0
175,8.75,18.5268,5.8318,-13.5592,5.215737640648909,2.245524775715052,-1.0900690911530542,0.32082059652161377,0.13852082081788808,-0.06830161451470218,0,70,255.0,255.0,255.0
176,8.8,18.787982627347674,5.944246910055142,-13.613787617989864,5.231461844649296,2.2523020313578717,-1.0934113567227022,0.3081475634938469,0.132569404894896,-0.0653890082712159,0,70,255.0,255.0,255.0
177,8.85,19.049935623604075,6.057025243622517,-13.6685387085004,5.246552396998293,2.2587817162045414,-1.0966079919801757,0.2954745304660805,0.12661798897190413,-0.06247640202772973,0,70,255.0,255.0,255.0
178,8.9,19.312627306186645,6.170120122162327,-13.723445990016012,5.261009297695903,2.264963830255062,-1.0996589969254753,0.2828014974383136,0.12066657304891204,-0.05956379578424345,0,70,255.0,255.0,255.0
179,8.950000000000001,19.57602599251281,6.283516667134759,-13.77850218102108,5.274832546742125,2.2708483735094327,-1.1025643715586002,0.2701284644105468,0.11471515712591995,-0.056651189540757166,0,70,255.0,255.0,255.0
180,9.0,19.8401,6.3972,-13.8337,5.288022144136957,2.276435345967654,-1.1053241158795508,0.25745543138275906,0.10876374120292098,-0.053738583297274545,0,70,255.0,255.0,255.0
181,9.05,20.10481771834996,6.511156060347652,-13.889032496145518,5.300582426938919,2.281773835393638,-1.1079580723894087,0.2449558806957027,0.10477583583643474,-0.051619677097045236,0,70,255.0,255.0,255.0
182,9.1,20.37014782640165,6.625374060284891,-13.944494041483773,5.312517732206527,2.2869129295512973,-1.1104860835892552,0.2324563300086468,0.10078793046994863,-0.04950077089681601,0,70,255.0,255.0,255.0
183,9.15,20.636059075278375,6.739844030048309,-14.000079338749273,5.323828059939784,2.2918526284406324,-1.1129081494790904,0.21995677932159047,0.09680002510346239,-0.0473818646965867,0,70,255.0,255.0,255.0
184,9.200000000000001,20.902520216103397,6.854555999874485,-14.055783090676519,5.334513410138687,2.296592932061644,-1.1152242700589141,0.2074572286345341,0.09281211973697615,-0.0452629584963574,0,70,255.0,255.0,255.0
185,9.25,21.1695,6.9695,-14.1116,5.344573782803236,2.3011338404143302,-1.1174344453287262,0.19495767794744268,0.08882421437046872,-0.043144052296128166,0,70,255.0,255.0,255.0
186,9.3,21.436967299252505,7.08466484855426,-14.167523997428074,5.354016447595008,2.305402627067577,-1.1194923537196435,0.18274891372343785,0.08192725175940428,-0.03917228334056512,0,70,255.0,255.0,255.0
187,9.35,21.704891470789313,7.200034515237913,-14.223545925564501,5.36284867417558,2.3093265655902706,-1.1213516736627827,0.17054014949943347,0.07503028914834009,-0.035200514385002206,0,70,255.0,255.0,255.0
188,9.4,21.973241992699876,7.315591757644443,-14.27965585498689,5.371070462544951,2.3129056559824113,-1.1230124051581436,0.15833138527542862,0.06813332653727566,-0.03122874542943916,0,70,255.0,255.0,255.0
189,9.450000000000001,22.241988343073626,7.431319333367317,-14.335843856272852,5.378681812703123,2.316139898243998,-1.1244745482057266,0.14612262105142382,0.06123636392621122,-0.027256976473876107,0,70,255.0,255.0,255.0
190,9.5,22.5111,7.5472,-14.3921,5.385682724650093,2.319029292375032,-1.1257381028055313,0.1339138568273981,0.05433940131514703,-0.0232852075183132,0,70,255.0,255.0,255.0
191,9.55,22.780546684640033,7.663217345435318,-14.448415514142184,5.392087782681041,2.321623656336058,-1.1268725127320094,0.12228846441054043,0.049435157125885996,-0.02209118954080507,0,70,255.0,255.0,255.0
192,9.600000000000001,23.050299090441097,7.779358278763452,-14.504786256258221,5.397911571091147,2.3239728080876207,-1.1279472217596118,0.11066307199368278,0.044530912936624964,-0.020897171563296946,0,70,255.0,255.0,255.0
193,9.65,23.320328153922134,7.895610539373922,-14.561209241303164,5.4031540898804105,2.3260767476297204,-1.128962229888339,0.09903767957682552,0.039626668747364105,-0.01970315358578886,0,70,255.0,255.0,255.0
194,9.700000000000001,23.590604811602123,8.011961866656264,-14.617681484232074,5.407815339048829,2.327935474962357,-1.1299175371181907,0.08741228715996788,0.034722424558103065,-0.018509135608280734,0,70,255.0,255.0,255.0
195,9.75,23.8611,8.1284,-14.6742,5.411895318596407,2.329548990085531,-1.1308131434491673,0.07578689474311773,0.0298181803688351,-0.017315117630774424,0,70,255.0,255.0,255.0
196,9.8,24.131783562187376,8.244912969704476,-14.730761146003193,5.415328421680846,2.3309347475881763,-1.131609595352344,0.06153722863444935,0.02561211973698499,-0.014542958496292217,0,70,255.0,255.0,255.0
197,9.850000000000001,24.402620967446335,8.361489969708293,-14.787358649402627,5.418049041459852,2.3321102020592295,-1.1322674392987964,0.047287562525780966,0.021406059105134878,-0.011770799361810013,0,70,255.0,255.0,255.0
198,9.9,24.6735765916116,8.478120484859872,-14.84398557980046,5.420057177933424,2.33307535349869,-1.132786675288525,0.033037896417113084,0.01719999847328492,-0.008998640227327905,0,70,255.0,255.0,255.0
199,9.950000000000001,24.94461481051792,8.594794000007635,-14.900635006798865,5.421352831101564,2.3338302019065575,-1.1331673033215293,0.018788230308444703,0.012993937841434811,-0.006226481092845701,0,70,255.0,255.0,255.0
200,10.0,25.2157,8.7115,-14.9573,5.42193600096427,2.334374747282834,-1.1334093233978095,0.004538564199798145,0.008787877209595507,-0.003454321958363593,0,70,255.0,255.0,255.0
201,10.05,25.48679826661049,8.828226775746787,-15.013973501845054,5.421910530595551,2.33463735331123,-1.1335051058586154,-0.005557378948573588,0.0017163639262512183,-0.000376976473870228,0,70,255.0,255.0,255.0
202,10.100000000000001,25.757882639773605,8.94495784240339,-15.070647946131293,5.421380263069413,2.334546383675459,-1.1334470210451966,-0.01565332209694532,-0.00535514935709307,0.002700369010623137,0,70,255.0,255.0,255.0
203,10.15,26.028927879631468,9.061675521186594,-15.127315639495004,5.420345198385856,2.3341018383755205,-1.1332350689575532,-0.025749265245316694,-0.012426662640437108,0.005777714495116392,0,70,255.0,255.0,255.0
204,10.200000000000001,26.29990874632623,9.178362133313204,-15.183968888572476,5.418805336544881,2.333303717411415,-1.132869249595685,-0.035845208393688426,-0.019498175923781398,0.008855059979609758,0,70,255.0,255.0,255.0
205,10.25,26.5708,9.295,-15.2406,5.416760677546488,2.332152020783143,-1.1323495629595919,-0.045941151542052694,-0.026569689207121883,0.011932405464108342,0,70,255.0,255.0,255.0
206,10.3,26.841574571370693,9.411572727308384,-15.297201646616598,5.414101455936938,2.3307238391669167,-1.1316979812131964,-0.060427712839958965,-0.03055757544192096,0.014130864391710705,0,70,255.0,255.0,255.0
207,10.350000000000001,27.112198073459286,9.528069060678167,-15.353767966072216,5.410717906262493,2.329096263238951,-1.1309364765204208,-0.07491427413786524,-0.03454546167672004,0.01632932331931307,0,70,255.0,255.0,255.0
208,10.4,27.382634289862526,9.64447903039375,-15.410293462219531,5.4066100285231515,2.3272692929992447,-1.1300650488812651,-0.08940083543577099,-0.038533347911518974,0.018527782246915352,0,70,255.0,255.0,255.0
209,10.450000000000001,27.652847004177186,9.760792666739562,-15.466772638911237,5.401777822718915,2.3252429284477993,-1.1290836982957293,-0.10388739673367725,-0.042521234146318046,0.020726241174517712,0,70,255.0,255.0,255.0
210,10.5,27.9228,9.877,-15.5232,5.396221288849783,2.323017169584613,-1.1279924247638133,-0.11837395803163275,-0.046509120381116986,0.022924700102123552,0,70,255.0,255.0,255.0
211,10.55,28.19245864790676,9.993090315019682,-15.579569511688563,5.390035645656703,2.32054729002112,-1.1267589692885815,-0.1290517696915559,-0.05228606215861199,0.02641351890714679,0,70,255.0,255.0,255.0
212,10.600000000000001,28.46179466638929,10.109049914883967,-15.635872989579855,5.383316111880627,2.317788563368752,-1.1253510728730984,-0.13972958135147906,-0.058063003936107,0.029902337712170025,0,70,255.0,255.0,255.0
213,10.65,28.73078136091844,10.22486435723841,-15.692101711626865,5.376062687521555,2.314740989627509,-1.1237687355173644,-0.15040739301140185,-0.0638399457136018,0.033391156517193134,0,70,255.0,255.0,255.0
214,10.700000000000001,28.999392036965062,10.340519199728572,-15.748246955782585,5.368275372579487,2.311404568797392,-1.1220119572213794,-0.16108520467132503,-0.06961688749109682,0.036879975322216374,0,70,255.0,255.0,255.0
215,10.75,29.2676,10.456,-15.8043,5.359954167054422,2.3077793008783996,-1.120080737985143,-0.1717630163312549,-0.07539382926859872,0.04036879412723593,0,70,255.0,255.0,255.0
216,10.8,29.535377237002283,10.571292412612895,-15.86025310662916,5.351019961436297,2.303871000748591,-1.118034141632472,-0.18560520839373018,-0.08093817592373974,0.041495059979602913,0,70,255.0,255.0,255.0
217,10.850000000000001,29.802690460983587,10.686382479785982,-15.91610247560837,5.341393646215049,2.2996854832860256,-1.1159312319871826,-0.19944740045620546,-0.08648252257888076,0.042621325831969904,0,70,255.0,255.0,255.0
218,10.9,30.069505066463737,10.801256340652618,-15.971845291273,5.331075221390677,2.295222748490703,-1.113772009049275,-0.21328959251868024,-0.09202686923402159,0.043747591684336846,0,70,255.0,255.0,255.0
219,10.950000000000001,30.3357864479626,10.915900134346174,-16.027478737958422,5.320064686963181,2.2904827963626233,-1.111556472818749,-0.22713178458115552,-0.09757121588916261,0.04487385753670384,0,70,255.0,255.0,255.0
220,11.0,30.6015,11.0303,-16.083,5.30836204293256,2.285465626901787,-1.1092846232956046,-0.2409739766436232,-0.10311556254431054,0.04600012338907433,0,70,255.0,255.0,255.0
221,11.05,30.866612404084123,11.144442434528743,-16.138405261794798,5.296044508598126,2.280192706984521,-1.1068964641815147,-0.25172739673375744,-0.10780123414630374,0.04952624117452236,0,70,255.0,255.0,255.0
222,11.100000000000001,31.13109548967641,11.25831536597212,-16.193686707986664,5.283189303259184,2.2746855034871563,-1.1043319991781524,-0.26248081682389174,-0.11248690574829694,0.05305235895997039,0,70,255.0,255.0,255.0
223,11.15,31.39492237322663,11.371907080151123,-16.248835523281127,5.269796426915737,2.2689440164096917,-1.1015912282855176,-0.2732342369140256,-0.11717257735028998,0.0565784767454183,0,70,255.0,255.0,255.0
224,11.200000000000001,31.658066171184576,11.485205862886753,-16.303842892383724,5.255865879567781,2.2629682457521274,-1.0986741515036105,-0.28398765700415984,-0.12185824895228317,0.06010459453086633,0,70,255.0,255.0,255.0
225,11.25,31.9205,11.5982,-16.3587,5.241397661215322,2.256758191514464,-1.0955807688324308,-0.29474107709425823,-0.12654392055426555,0.06363071231631956,0,70,255.0,255.0,255.0
226,11.3,32.18219554666125,11.710877049272142,-16.41339864619164,5.2263060041711835,2.2502701713133284,-1.092348001641469,-0.30892520467125184,-0.13297688749115305,0.06567997532214814,0,70,255.0,255.0,255.0
227,11.350000000000001,32.44311878031081,11.823221656325556,-16.467933092444976,5.210505140748197,2.2434605027653483,-1.089012771300216,-0.3231093322482455,-0.13940985442804052,0.06772923832797671,0,70,255.0,255.0,255.0
228,11.4,32.70323424062975,11.935217738742894,-16.522298215602493,5.193995070946359,2.2363291858705243,-1.0855750778086712,-0.3372934598252386,-0.1458428213649278,0.06977850133380523,0,70,255.0,255.0,255.0
229,11.450000000000001,32.96250646729913,12.046849214106828,-16.576488892506674,5.176775794765673,2.2288762206288557,-1.0820349211668354,-0.3514775874022323,-0.15227578830181526,0.07182776433963381,0,70,255.0,255.0,255.0
230,11.5,33.2209,12.1581,-16.6305,5.158847312206137,2.221101607040343,-1.078392301374708,-0.3656617149792325,-0.15870875523872385,0.07387702734546586,0,70,255.0,255.0,255.0
231,11.55,33.47838060927092,12.2689549683827,-16.684325753438642,5.140283474717129,2.2130626077621467,-1.0746075292526514,-0.37689178458109485,-0.16285121588912624,0.0775138575368001,0,70,255.0,255.0,255.0
232,11.600000000000001,33.73491898908039,12.379402808725676,-16.73795772223344,5.121158133748027,2.2048164854514303,-1.0706409156210281,-0.38812185418295714,-0.1669936765395286,0.08115068772813433,0,70,255.0,255.0,255.0
233,11.65,33.99048706425439,12.4894331648773,-16.791386814308918,5.101471289298833,2.1963632401081936,-1.066492460479838,-0.3993519237848191,-0.17113613718993081,0.08478751791946844,0,70,255.0,255.0,255.0
234,11.700000000000001,34.245056759618926,12.599035680685953,-16.8446039375896,5.081222941369545,2.1877028717324367,-1.0621621638290812,-0.41058199338668144,-0.1752785978403332,0.08842434811080267,0,70,255.0,255.0,255.0
235,11.75,34.4986,12.7082,-16.8976,5.060413089960164,2.17883538032416,-1.0576500256687575,-0.4218120629885789,-0.17942105849075318,0.09206117830213856,0,70,255.0,255.0,255.0
236,11.8,34.7510884162551,12.816915077197072,-16.9503671400538,5.039024096960341,2.1697193976380844,-1.0530298813479309,-0.43374765700434653,-0.18521824895226624,0.09274459453092875,0,70,255.0,255.0,255.0
237,11.850000000000001,35.0024924633677,12.92516710877176,-17.002902418621268,5.01703832425973,2.1603135554289334,-1.0483755662156644,-0.4456832510201142,-0.1910154394137793,0.09342801075971893,0,70,255.0,255.0,255.0
238,11.9,35.25278230235273,13.032941601747911,-17.05520412716184,4.99445577185833,2.1506178536967067,-1.043687080271959,-0.45761884503588146,-0.19681262987529213,0.0941114269885091,0,70,255.0,255.0,255.0
239,11.950000000000001,35.50192809422518,13.140224063149379,-17.107270557134942,4.97127643975614,2.140632292441404,-1.0389644235168138,-0.4695544390516491,-0.2026098203368052,0.0947948432172993,0,70,255.0,255.0,255.0
240,12.0,35.7499,13.247,-17.1591,4.947500327953164,2.130356871663026,-1.0342075959502288,-0.48149003306746607,-0.20840701079832513,0.09547825944609833,0,70,255.0,255.0,255.0
241,12.05,35.99666732570868,13.353255122829028,-17.210688886346166,4.923076137441423,2.1198038016855216,-1.0293049453555887,-0.4954775874021765,-0.21371578830185037,0.10062776433950205,0,70,255.0,255.0,255.0
242,12.100000000000001,36.24219595744887,13.458975956187302,-17.262026203281483,4.897952569212945,2.108985292832841,-1.0241448195162783,-0.509465141736887,-0.2190245658053756,0.10577726923290577,0,70,255.0,255.0,255.0
243,12.15,36.4864509263347,13.564149228131058,-17.313099077043713,4.8721296232677345,2.0979013451049844,-1.0187272184322982,-0.5234526960715968,-0.22433334330890065,0.1109267741263093,0,70,255.0,255.0,255.0
244,12.200000000000001,36.72939726348036,13.668761666716547,-17.363894633870633,4.845607299605786,2.0865519585019507,-1.0130521421036476,-0.5374402504063074,-0.2296421208124259,0.11607627901971303,0,70,255.0,255.0,255.0
245,12.25,36.971,13.7728,-17.4144,4.818385598227104,2.0749371330237416,-1.007119590530327,-0.5514278047410386,-0.23495089831594385,0.12122578391311656,0,70,255.0,255.0,255.0
246,12.3,37.21122548091016,13.876250831486825,-17.464604514561543,4.790543353273917,2.0630493956198337,-1.0010623372297291,-0.5622619933864174,-0.24055859784035655,0.12106434811079474,0,70,255.0,255.0,255.0
247,12.350000000000001,37.450045306836856,13.97910026647905,-17.51450636825281,4.762159398888461,2.0508812732397055,-0.9950131557192473,-0.5730961820317961,-0.24616629736476925,0.12090291230847292,0,70,255.0,255.0,255.0
248,12.4,37.687432392308466,14.081334285727857,-17.5641059646633,4.733233735070739,2.038432765883357,-0.9889720459988818,-0.5839303706771746,-0.2517739968891818,0.12074147650615111,0,70,255.0,255.0,255.0
249,12.450000000000001,37.92335965185339,14.182938869984447,-17.61340370738253,4.703766361820745,2.0257038735507877,-0.9829390080686323,-0.5947645593225532,-0.2573816964135945,0.12058004070382929,0,70,255.0,255.0,255.0
250,12.5,38.1578,14.2839,-17.6624,4.673757279138482,2.0126945962419973,-0.9769140419284991,-0.6055987479679814,-0.26298939593802473,0.1204186049015048,0,70,255.0,255.0,255.0
251,12.55,38.39072515065069,14.384203951223679,-17.711093055407666,4.643134449462986,1.9994226158351274,-0.9707657057255255,-0.6193144390518812,-0.26788982033676456,0.12551484321743647,0,70,255.0,255.0,255.0
252,12.600000000000001,38.62210201520374,14.483838177896516,-17.759472323707293,4.611825835233293,1.9859056142083205,-0.9643625576067553,-0.633030130135781,-0.27279024473550434,0.13061108153336815,0,70,255.0,255.0,255.0
253,12.65,38.851896304431435,14.58279042895751,-17.807525064303082,4.579831436449408,1.9721435913615772,-0.9577045975721887,-0.6467458212196804,-0.277690669134244,0.13570731984929962,0,70,255.0,255.0,255.0
254,12.700000000000001,39.080073729106104,14.681048453345674,-17.85523853659925,4.547151253111325,1.9581365472948962,-0.9507918256218253,-0.6604615123035802,-0.28259109353298384,0.14080355816523132,0,70,255.0,255.0,255.0
255,12.75,39.3066,14.7786,-17.9026,4.513785285219049,1.9438844820082786,-0.9436242417556657,-0.6741772033875151,-0.28749151793173944,0.14589979648116191,0,70,255.0,255.0,255.0
256,12.8,39.53144191648713,14.875432563618467,-17.949598463807792,4.479798848874199,1.9293721410396736,-0.9363068398681456,-0.6852802504064444,-0.29300212081244764,0.14679627901964204,0,70,255.0,255.0,255.0
257,12.850000000000001,39.75457063234825,14.971532621934905,-17.996229936918034,4.445257260178404,1.9145842699270335,-0.9289446138537013,-0.6963832974253736,-0.2985127236931559,0.14769276155812217,0,70,255.0,255.0,255.0
258,12.9,39.97595838996578,15.066886398442103,-18.04249217812438,4.410160519131662,1.8995208686703584,-0.9215375637123334,-0.7074863444443026,-0.30402332657386394,0.14858924409660226,0,70,255.0,255.0,255.0
259,12.950000000000001,40.19557743172223,15.161480116632873,-18.088382946220488,4.374508625733973,1.8841819372696471,-0.9140856894440411,-0.7185893914632319,-0.30953392945457214,0.1494857266350824,0,70,255.0,255.0,255.0
260,13.0,40.4134,15.2553,-18.1339,4.338301579985338,1.8685674757249011,-0.9065889910488251,-0.7296924384821821,-0.31504453233529084,0.1503822091735687,0,70,255.0,255.0,255.0
261,13.05,40.62939758340082,15.34833219430246,-18.17904028936117,4.30149415504022,1.852672820006178,-0.8989989348018902,-0.7426045593225711,-0.3207416964136276,0.153220040703822,0,70,255.0,255.0,255.0
262,13.100000000000001,40.843538655403336,15.44056253436389,-18.223797528620583,4.2640411240530804,1.8364933060835378,-0.8912669869784426,-0.75551668016296,-0.32643886049196436,0.1560578722340753,0,70,255.0,255.0,255.0
263,13.15,41.055790935705424,15.531976777274082,-18.268164623199407,4.225942487023923,1.8200289339569815,-0.8833931475784828,-0.7684288010033484,-0.3321360245703009,0.1588957037643285,0,70,255.0,255.0,255.0
264,13.200000000000001,41.266122144005024,15.622560680122852,-18.312134478518818,4.1871982439527455,1.803279703626508,-0.8753774166020099,-0.7813409218437374,-0.33783318864863765,0.1617335352945818,0,70,255.0,255.0,255.0
265,13.25,41.4745,15.7123,-18.3557,4.14780839483955,1.786245615092118,-0.8672197940490245,-0.7942530426841543,-0.3435303527269742,0.16457136682483942,0,70,255.0,255.0,255.0
266,13.3,41.680893349909624,15.801181059171697,-18.398853978747532,4.107840530964858,1.768960578935619,-0.8589134209242725,-0.8044615123034746,-0.3478710935329734,0.16768355816523592,0,70,255.0,255.0,255.0
267,13.350000000000001,41.88527554603847,15.889192440609559,-18.441588748599642,4.067362243609201,1.7514585057388201,-0.8504514382325007,-0.814669981922795,-0.3522118343389726,0.17079574950563242,0,70,255.0,255.0,255.0
268,13.4,42.087621067212524,15.976323292461572,-18.48389652907799,4.026373532772579,1.733739395501722,-0.8418338459737092,-0.824878451542115,-0.35655257514497163,0.17390794084602884,0,70,255.0,255.0,255.0
269,13.450000000000001,42.287904392257715,16.062562762875725,-18.525769539704232,3.98487439845499,1.715803248224323,-0.8330606441478978,-0.8350869211614355,-0.3608933159509708,0.17702013218642534,0,70,255.0,255.0,255.0
270,13.5,42.4861,16.1479,-18.5672,3.9428648406564357,1.6976500639066252,-0.8241318327550669,-0.8452953907807661,-0.3652340567569716,0.18013232352682174,0,70,255.0,255.0,255.0
271,13.55,42.68218101696073,16.23232356901076,-18.608180595648715,3.9002637211003344,1.6792448642513362,-0.8150753815010192,-0.8587493914632555,-0.37097392945457136,0.18212572663507667,0,70,255.0,255.0,255.0
272,13.600000000000001,42.87611516044281,16.31581970319789,-18.648705876980845,3.8569899015101092,1.6605526709611675,-0.8059192600915589,-0.8722033921457449,-0.37671380215217115,0.1841191297433316,0,70,255.0,255.0,255.0
273,13.65,43.06786879544451,16.39837405287963,-18.688770860488614,3.8130433818857603,1.6415734840361196,-0.7966634685266862,-0.8856573928282339,-0.3824536748497707,0.18611253285158647,0,70,255.0,255.0,255.0
274,13.700000000000001,43.25740828696414,16.479972268374254,-18.728370562664256,3.768424162227286,1.6223073034761906,-0.7873080068064003,-0.8991113935107232,-0.38819354754737045,0.18810593595984143,0,70,255.0,255.0,255.0
275,13.75,43.4447,16.5606,-18.7675,3.723132242534688,1.6027541292813825,-0.7778528749307021,-0.9125653941932299,-0.39393342024496647,0.19009933906809628,0,70,255.0,255.0,255.0
276,13.8,43.629710582247476,16.640243064785267,-18.806154038657606,3.6771845846337627,1.5829239640590416,-0.768289053071635,-0.9253409218437569,-0.3992731886486632,0.19245353529458067,0,70,255.0,255.0,255.0
277,13.850000000000001,43.81240781219034,16.718887946598905,-18.844326943476972,3.630598150350311,1.5628268104165157,-0.7586075214012438,-0.9381164494942841,-0.40461295705235983,0.19480773152106506,0,70,255.0,255.0,255.0
278,13.9,43.99275975100946,16.79652129601991,-18.882012828967543,3.5833729396843346,1.5424626683538056,-0.7488082799195287,-0.9508919771448107,-0.4099527254560563,0.1971619277475494,0,70,255.0,255.0,255.0
279,13.950000000000001,44.17073445988573,16.87312976362728,-18.919205809638736,3.5355089526358303,1.5218315378709102,-0.7388913286264889,-0.9636675047953378,-0.41529249385975303,0.1995161239740338,0,70,255.0,255.0,255.0
280,14.0,44.3463,16.9487,-18.9559,3.4870061892048008,1.5009334189678307,-0.7288566675221253,-0.976443032445875,-0.42063226226344064,0.20187032020052165,0,70,255.0,255.0,255.0
281,14.05,44.51942465404939,17.023218571848194,-18.99208884972086,3.437877940364619,1.4797632795124716,-0.7186644062124514,-0.9886869211613553,-0.42617331595091884,0.20582013218642783,0,70,255.0,255.0,255.0
282,14.100000000000001,44.69007759079587,17.096671710406508,-19.02776314911126,3.388137497088664,1.458316087372738,-0.7082746543034822,-1.0009308098768355,-0.43171436963839704,0.20976994417233402,0,70,255.0,255.0,255.0
283,14.15,44.85822820051765,17.169045563040726,-19.062913023641226,3.337784859376936,1.436591842548632,-0.6976874117952181,-1.0131746985923151,-0.4372554233258751,0.2137197561582401,0,70,255.0,255.0,255.0
284,14.200000000000001,45.02384587349297,17.240326277116633,-19.097528598780794,3.286820027229433,1.4145905450401508,-0.6869026786876583,-1.0254185873077954,-0.44279647701335323,0.21766956814414629,0,70,255.0,255.0,255.0
285,14.25,45.1869,17.3105,-19.1316,3.235243000646157,1.3923121948472967,-0.6759204549808036,-1.0376624760232822,-0.44833753070082416,0.2216193801300559,0,70,255.0,255.0,255.0
286,14.3,45.347359601555,17.37955304782197,-19.165118562458947,3.1830316539078027,1.369766917891092,-0.6648133220785563,-1.050791393510857,-0.4534735475473522,0.22266593595982978,0,70,255.0,255.0,255.0
287,14.350000000000001,45.505192224626214,17.44747241177507,-19.198080460077996,3.13016386129507,1.346964840092561,-0.6536538613848203,-1.0639203109984319,-0.4586095643938803,0.22371249178960365,0,70,255.0,255.0,255.0
288,14.4,45.66036504691993,17.51424525181719,-19.230483076467575,3.07663962280796,1.3239059614517041,-0.642442072899596,-1.0770492284860063,-0.46374558124040816,0.22475904761937748,0,70,255.0,255.0,255.0
289,14.450000000000001,45.81284524614243,17.579858727906203,-19.2623237952381,3.0224589384464693,1.3005902819685202,-0.6311779566228826,-1.090178145973581,-0.4688815980869362,0.22580560344915138,0,70,255.0,255.0,255.0
290,14.5,45.9626,17.6443,-19.2936,2.967621808210602,1.277017801643011,-0.6198615125546809,-1.103307063461159,-0.47401761493346584,0.22685215927892877,0,70,255.0,255.0,255.0
291,14.55,46.10959693973065,17.707556436863932,-19.324308100443346,2.912155444004189,1.253201048923177,-0.608434305473355,-1.1153475047953294,-0.47865249385987674,0.23023612397410073,0,70,255.0,255.0,255.0
292,14.600000000000001,46.25380551069931,17.769616242493214,-19.354440610576756,2.8560870577310675,1.2291525522570226,-0.5968379001572706,-1.1273879461295,-0.48328737278628764,0.23362008866927272,0,70,255.0,255.0,255.0
293,14.65,46.39519561180265,17.83046782969053,-19.383989070488497,2.7994166493912394,1.2048723116445483,-0.5850722966064278,-1.13942838746367,-0.4879222517126984,0.23700405336444458,0,70,255.0,255.0,255.0
294,14.700000000000001,46.53373714193733,17.890099611258563,-19.41294502026682,2.7421442189847007,1.1803603270857528,-0.5731374948208261,-1.1514688287978405,-0.4925571306391093,0.24038801805961654,0,70,255.0,255.0,255.0
295,14.75,46.6694,17.9485,-19.4413,2.684269766511456,1.1556165985806377,-0.5610334948004662,-1.163509270132014,-0.49719200956551646,0.24377198275479106,0,70,255.0,255.0,255.0
296,14.8,46.80215343952242,18.00565640472231,-19.469045835767666,2.6257545700754603,1.1305808864161675,-0.5487774560279924,-1.1770985873077886,-0.5042364770132737,0.24646956814414858,0,70,255.0,255.0,255.0
297,14.850000000000001,46.93196413257657,18.06155221825208,-19.496175497614974,2.5665599077806753,1.1051929508793097,-0.536386537986051,-1.190687904483563,-0.5112809444610308,0.24916715353350607,0,70,255.0,255.0,255.0
298,14.9,47.058798105869506,18.1161698294207,-19.522682241578448,2.5066857796271043,1.0794527919700647,-0.523860740674642,-1.2042772216593371,-0.5183254119087878,0.2518647389228635,0,70,255.0,255.0,255.0
299,14.950000000000001,47.1826213861083,18.169491627059543,-19.548559323694615,2.4461321856147427,1.053360409688431,-0.5112000640937647,-1.2178665388351115,-0.525369879356545,0.254562324312221,0,70,255.0,255.0,255.0
300,15.0,47.3034,18.2215,-19.5738,2.3848991257435936,1.0269158040344102,-0.4984045082434199,-1.2314558560108857,-0.5324143468043054,0.25725990970157886,0,70,255.0,255.0,255.0
301,15.05,47.42110210217969,18.272179544246846,-19.59839815648598,2.3231142756939795,1.0002514054121308,-0.48551187041465504,-1.239938145973644,-0.5341615980868529,0.2584456034490079,0,70,255.0,255.0,255.0
302,15.100000000000001,47.53570435899444,18.321523684498477,-19.622350198963343,2.2609053111462276,0.9734996442257241,-0.47255994789851874,-1.2484204359364024,-0.5359088493694003,0.2596312971964369,0,70,255.0,255.0,255.0
303,15.15,47.64718556471934,18.369528052626684,-19.64565316319771,2.1982722321003396,0.9466605204751911,-0.45954874069501145,-1.2569027258991603,-0.5376561006519477,0.2608169909438659,0,70,255.0,255.0,255.0
304,15.200000000000001,47.7555245136295,18.41618828050326,-19.66830408495472,2.135215038556312,0.9197340341605295,-0.4464782488041323,-1.2653850158619186,-0.5394033519344952,0.2620026846912949,0,70,255.0,255.0,255.0
305,15.25,47.8607,18.4615,-19.6903,2.0717337305141483,0.8927201852817417,-0.4333484722258821,-1.2738673058246768,-0.5411506032170408,0.26318837843872656,0,70,255.0,255.0,255.0
306,15.3,47.96268135175885,18.50545341829031,-19.711635138288408,2.0072603271485865,0.8652934919353362,-0.4199910623134199,-1.3050688287977548,-0.5559171306391635,0.2711080180597522,0,70,255.0,255.0,255.0
307,15.350000000000001,48.061400031445714,18.54801704375402,-19.732292506531657,1.941226847634371,0.8371284722178245,-0.4062376704199065,-1.3362703517708328,-0.5706836580612863,0.27902765768077786,0,70,255.0,255.0,255.0
308,15.4,48.15677803525315,18.589153960072572,-19.752252305630712,1.8736332919715037,0.8082251261292078,-0.3920882965453423,-1.3674718747439096,-0.5854501854834084,0.2869472973018032,0,70,255.0,255.0,255.0
309,15.450000000000001,48.24873735937372,18.628827250927415,-19.77149473648651,1.8044796601599806,0.7785834536694839,-0.37754294068972627,-1.3986733977169876,-0.6002167129055311,0.29486693692282884,0,70,255.0,255.0,255.0
310,15.5,48.3372,18.667,-19.79,1.7337659521998054,0.748203454838655,-0.3626016028530595,-1.4298749206900698,-0.6149832403276525,0.30278657654385244,0,70,255.0,255.0,255.0
311,15.55,48.422087690784906,18.70363478259193,-19.807749290360405,1.6614764157116737,0.7170546268465472,-0.3473238803316572,-1.4617065388351584,-0.630969879356643,0.30832232431223133,0,70,255.0,255.0,255.0
312,15.600000000000001,48.50332111522272,18.73869214048547,-19.824727774910023,1.5875952983162875,0.6851064669029898,-0.3317693704218359,-1.493538156980247,-0.6469565183856335,0.3138580720806103,0,70,255.0,255.0,255.0
313,15.65,48.580820694268084,18.772132107083035,-19.840921614279445,1.5121226000136496,0.6523589750079841,-0.3159380731235963,-1.5253697751253348,-0.6629431574146234,0.319393819848989,0,70,255.0,255.0,255.0
314,15.700000000000001,48.65450684887563,18.803914715787077,-19.856316969099243,1.4350583208037546,0.6188121511615278,-0.29982998843693714,-1.5572013932704234,-0.678929796443614,0.3249295676173679,0,70,255.0,255.0,255.0
315,15.75,48.7243,18.834,-19.8709,1.3564024606866079,0.584465995363623,-0.2834451163618596,-1.5890330114155216,-0.6949164354726038,0.33046531538574664,0,70,255.0,255.0,255.0
316,15.8,48.79014868510154,18.86236185134198,-19.88466210026998,1.2778420100046703,0.5501520006784463,-0.26709741635993517,-1.5533850158619322,-0.677643351934445,0.3234426846912212,0,70,255.0,255.0,255.0
317,15.850000000000001,48.85211390766342,18.889029594304127,-19.897615593828238,1.2010639591004124,0.5167016601701776,-0.251100847892737,-1.5177370203083427,-0.6603702683962862,0.3164200539966958,0,70,255.0,255.0,255.0
318,15.9,48.91028478767454,18.914046411595283,-19.909778037251503,1.1260683079738365,0.48411497383881785,-0.23545541096026568,-1.4820890247547547,-0.643097184858128,0.3093974233021707,0,70,255.0,255.0,255.0
319,15.950000000000001,48.96475044512377,18.93745548592429,-19.92116698711651,1.0528550566249375,0.452391941684365,-0.22016110556252005,-1.4464410292011654,-0.6258241013199692,0.3023747926076452,0,70,255.0,255.0,255.0
320,16.0,49.0156,18.9593,-19.9318,0.9814242050537207,0.42153256370682124,-0.20521793169950128,-1.4107930336475754,-0.6085510177818101,0.2953521619131203,0,70,255.0,255.0,255.0
321,16.05,49.06291756880893,18.979620212040142,-19.94169350855966,0.9114755442696084,0.3913613704396389,-0.19055845422860215,-1.3871533977168784,-0.5982967129054663,0.2910269369228371,0,70,255.0,255.0,255.0
322,16.1,49.10676725412357,18.998444682298025,-19.950859449777017,0.8427088652820309,0.36170289241627374,-0.17611523800721718,-1.3635137617861817,-0.5880424080291224,0.28670171193255384,0,70,255.0,255.0,255.0
323,16.150000000000002,49.14720815503374,19.015799046535832,-19.959308636714542,0.7751241680909883,0.33255712963672585,-0.16188828303534636,-1.3398741258554847,-0.5777881031527786,0.28237648694227063,0,70,255.0,255.0,255.0
324,16.2,49.184299370629276,19.03170894051576,-19.96705188243471,0.7087214526964852,0.3039240821009971,-0.1478775893129907,-1.3162344899247895,-0.5675337982764356,0.2780512619519877,0,70,255.0,255.0,255.0
325,16.25,49.2181,19.0462,-19.9741,0.6435007190985123,0.27580374980908356,-0.1340831568401482,-1.2925948539940926,-0.5572794934000918,0.2737260369617047,0,70,255.0,255.0,255.0
326,16.3,49.24866183966274,19.059294900497434,-19.980463065491364,0.5790238129168979,0.24801851756299007,-0.12046076672566977,-1.2864813932704442,-0.554129796443632,0.271169567617425,0,70,255.0,255.0,255.0
327,16.35,49.27600747584229,19.07100447650376,-19.98614820706369,0.5148525797714659,0.22039077016471958,-0.10696620007840532,-1.2803679325467958,-0.5509800994871722,0.26861309827314533,0,70,255.0,255.0,255.0
328,16.400000000000002,49.30015219219048,19.08133660226137,-19.991161815890326,0.4509870196622165,0.19292050761427207,-0.09359945689835486,-1.2742544718231477,-0.5478304025307125,0.2660566289288656,0,70,255.0,255.0,255.0
329,16.45,49.32111127235911,19.090299152012655,-19.99551028314464,0.38742713258915396,0.1656077299116495,-0.08036053718551932,-1.2681410110994997,-0.5446807055742529,0.2635001595845861,0,70,255.0,255.0,255.0
330,16.5,49.3389,19.0979,-19.9992,0.32417291855226926,0.13845243705684795,-0.0672494409398968,-1.2620275503758505,-0.5415310086177934,0.26094369024030695,0,70,255.0,255.0,255.0
331,16.55,49.35356787254013,19.104161785970113,-20.002243829474875,0.26327720406284083,0.11234055930840321,-0.05465447886869947,-1.1738010292012524,-0.5029441013199817,0.24285479260757928,0,70,255.0,255.0,255.0
332,16.6,49.36530124250726,19.109166211686922,-20.00468052196823,0.20679281563214236,0.08815802692484907,-0.04296396167913854,-1.0855745080266543,-0.4643571940221701,0.2247658949748516,0,70,255.0,255.0,255.0
333,16.650000000000002,49.37432067620433,19.11300974441868,-20.00655529972415,0.15471975326017387,0.06590483990618554,-0.03217788937121399,-0.9973479868520561,-0.4257702867243585,0.20667699734212397,0,70,255.0,255.0,255.0
334,16.7,49.38084673993427,19.11578885143362,-20.007913384986708,0.10705801694693856,0.04558099825241398,-0.022296261944926513,-0.9091214656774642,-0.3871833794265496,0.18858809970939758,0,70,255.0,255.0,255.0
335,16.75,49.3851,19.1176,-20.0088,0.06380760669242971,0.02718650196353154,-0.013319079400274707,-0.8208949445028656,-0.348596472128738,0.1704992020766699,0,70,255.0,255.0,255.0
336,16.8,49.38734907017674,19.11855955562212,-20.009270416609137,0.027851370831738116,0.011915245203401294,-0.00584931779955798,-0.617354489924778,-0.2622537982764633,0.1282912619519949,0,70,255.0,255.0,255.0
337,16.85,49.38805475412865,19.11886347674855,-20.00942010506339,0.0020721576999510397,0.0009611221358848433,-0.0004899532050750346,-0.4138140353466904,-0.17591112442418855,0.08608332182731988,0,70,255.0,255.0,255.0
338,16.900000000000002,49.387725902992216,19.11872762006392,-20.00935458521308,-0.013530032702931516,-0.005675867239017807,0.00275901438317413,-0.2102735807686028,-0.08956845057191382,0.04387538170264488,0,70,255.0,255.0,255.0
339,16.95,49.386871367903844,19.11836784225286,-20.009179376908516,-0.018955200376909523,-0.007995722921306653,0.0038975849651895107,-0.006733126190529681,-0.0032257767196451903,0.0016674415779728557,0,70,255.0,255.0,255.0
340,17.0,49.386,19.118,-20.009,-0.014203345321983763,-0.005998444910982016,0.0029257585409712666,0.19680732838755782,0.08311689713262954,-0.04054049854670212,0,70,255.0,255.0,255.0
341,17.05,49.385515046752936,19.117795191541404,-20.00890010408858,-0.005610687389781084,-0.002369540122022096,0.0011557500669201188,0.14689898890054448,0.062039294425765196,-0.030259840415342777,0,70,255.0,255.0,255.0
342,17.1,49.385397340978116,19.117745481318874,-20.008875857778197,0.0004865535680708931,0.00020548453159459183,-0.00010022550056305456,0.09699064941353117,0.04096169171890084,-0.019979182283983436,0,70,255.0,255.0,255.0
343,17.150000000000002,49.38552211182684,19.117798175325643,-20.008901559423528,0.004088377551572169,0.0017266290498680458,-0.000842168161478253,0.047082309926517824,0.01988408901203649,-0.009698524152624094,0,70,255.0,255.0,255.0
344,17.2,49.38576458845037,19.117900579554938,-20.008951507379237,0.005194784560722754,0.0021938934327982752,-0.0010700779158254797,-0.0028260295604919383,-0.0011935136948263564,0.0005821339787345156,0,70,255.0,255.0,255.0
345,17.25,49.386,19.118,-20.009,0.0038057745955228,0.001607277680385339,-0.0007839547636047673,-0.05273436904750531,-0.0222711164016907,0.01086279211009385,0,70,255.0,255.0,255.0
346,17.3,49.38612994281154,19.118054878212256,-20.00902676703654,0.0015033787273973503,0.000634915284679912,-0.0003096824681189048,-0.03936146567751138,-0.016623379426525826,0.008108099709340384,0,70,255.0,255.0,255.0
347,17.35,49.38616148195888,19.118068197975948,-20.009033263823813,-0.00013037197222839306,-5.506026226726737e-05,2.6855207329282485e-05,-0.025988562307517442,-0.010975642451360955,0.0053534073085869174,0,70,255.0,255.0,255.0
348,17.400000000000002,49.38612804970046,19.118054078633506,-20.009026377092813,-0.0010954775033544311,-0.0004626489604561989,0.00022565826273979466,-0.012615658937523505,-0.005327905476196083,0.002598714907833451,0,70,255.0,255.0,255.0
349,17.45,49.38606307829469,19.11802663952738,-20.00901299357454,-0.0013919378659807639,-0.0005878508098868837,0.0002867266981126317,0.0007572444324694741,0.00031983149896838703,-0.0001559774929198194,0,70,255.0,255.0,255.0
350,17.5,49.386,19.118,-20.009,-0.0010197530601074362,-0.0004306658105593408,0.00021006051344780332,0.014130147802463416,0.005967568474133262,-0.0029106698936732854,0,70,255.0,255.0,255.0
351,17.55,49.38596518200092,19.117985295609568,-20.008992827765248,-0.0004028275198083168,-0.00017012101669755257,8.297980555550039e-05,0.01054687380950101,0.004454223280338119,-0.0021725584220187596,0,70,255.0,255.0,255.0
352,17.6,49.38595673118636,19.11798172677733,-20.008991086926553,3.4934320842679655e-05,1.4756517474477432e-05,-7.195328754075722e-06,0.006963599816538602,0.002940878086542976,-0.001434446950364234,0,70,255.0,255.0,255.0
353,17.650000000000002,49.385965689371346,19.117985510140315,-20.008992932205228,0.00029353246184555344,0.00012396679195674924,-6.046488948092504e-05,0.003380325823576195,0.0014275328927478336,-0.0006963354787097083,0,70,255.0,255.0,255.0
354,17.7,49.385983098370886,19.117992862335537,-20.008996518322608,0.00037296690320030444,0.000157509806749263,-7.68288766250477e-05,-0.00020294816938595805,-8.581230104720214e-05,4.177599294476501e-05,0,70,255.0,255.0,255.0
355,17.75,49.386,19.118,-20.009,0.00027323764490694524,0.00011538556185202384,-5.628729018644598e-05,-0.003786222162348367,-0.001599157494842345,0.0007798874645992911,0,70,255.0,255.0,255.0
356,17.8,49.386009329184795,19.118003939349475,-20.009001921902467,0.00010793135183591695,4.5568782110298056e-05,-2.2236754103096857e-05,-0.0028260295604926704,-0.0011935136948266467,0.0005821339787346543,0,70,255.0,255.0,255.0
357,17.85,49.38601159329569,19.118004894914712,-20.00900238846998,-9.365311142325828e-06,-3.9658076306425255e-06,1.9261076870202794e-06,-0.001865836958636974,-0.0007878698948109485,0.0003843804928700175,0,70,255.0,255.0,255.0
358,17.900000000000002,49.38600919281418,19.11800388080521,-20.009001894086268,-7.865234402778303e-05,-3.3218207370797894e-05,1.620129518390544e-05,-0.000905644356781277,-0.00038222609479525026,0.00018662700700538073,0,70,255.0,255.0,255.0
359,17.95,49.38600452822179,19.118001911130474,-20.009000933135034,-9.992974682045504e-05,-4.218841711016815e-05,2.0588808387558675e-05,5.454824507435119e-05,2.341770522041914e-05,-1.1126478859242056e-05,0,70,255.0,255.0,255.0
360,18.0,49.386,19.118,-20.009,-7.319751952034463e-05,-3.087643684875458e-05,1.5088647297980567e-05,0.0010147408469300477,0.0004290615052361175,-0.00020887996472387872,0,70,255.0,255.0,255.0
361,18.05,49.385997501259915,19.117998946992532,-20.008999484624894,-2.8897887535351065e-05,-1.215411174363969e-05,5.967210856887032e-06,0.0007572444324696697,0.0003198314989684674,-0.00015597749291985745,0,70,255.0,255.0,255.0
362,18.1,49.38599689563091,19.11799869356382,-20.00899935919352,2.52692372662342e-06,1.1067130480926178e-06,-5.091019940054017e-07,0.0004997480180092917,0.00021060149270081736,-0.0001030750211158362,0,70,255.0,255.0,255.0
363,18.150000000000002,49.385997539371935,19.117998966638833,-20.0089994914497,2.1076914265578805e-05,8.906037526442337e-06,-4.340291254696736e-06,0.00024225160354891372,0.0001013714864331673,-5.017254931181494e-05,0,70,255.0,255.0,255.0
364,18.2,49.385998788741986,19.117999493142566,-20.008999749137253,2.6752084081515192e-05,1.1243861691409524e-05,-5.5263569251869745e-06,-1.5244810911446043e-05,-7.858519834475018e-06,2.729922492202561e-06,0,70,255.0,255.0,255.0
365,18.25,49.386,19.118,-20.009,1.9552433174433306e-05,8.120185542994473e-06,-4.067299005476295e-06,-0.000272741225371824,-0.000117088526102125,5.5632394296223796e-05,0,70,255.0,255.0,255.0
366,18.3,49.38600066577557,19.118000272680376,-20.00900013959796,7.660198305487324e-06,3.0476648642607007e-06,-1.632089324451277e-06,-0.00020294816938600847,-8.581230104722302e-05,4.1775992944775534e-05,0,70,255.0,255.0,255.0
367,18.35,49.38600082418072,19.118000330830007,-20.009000174755933,-7.423837641678293e-07,-4.610445617279512e-07,1.1030028900131768e-07,-0.00013315511340019292,-5.4536075992321045e-05,2.7919591593327276e-05,0,70,255.0,255.0,255.0
368,18.400000000000002,49.38600064969807,19.118000252639444,-20.00900014011493,-5.6553130345321564e-06,-2.405942734971482e-06,1.15986983488149e-06,-6.336205741437739e-05,-2.325985093741908e-05,1.406319024187901e-05,0,70,255.0,255.0,255.0
369,18.45,49.38600031681028,19.118000116299253,-20.009000070315953,-7.078589505605679e-06,-2.787029655469919e-06,1.516619313189239e-06,6.430998571433201e-06,8.016374117480687e-06,2.0678889043173736e-07,0,70,255.0,255.0,255.0
370,18.5,49.386,19.118,-20.009,-5.012213177388608e-06,-1.604305323223322e-06,1.1805487239246148e-06,7.622405455724873e-05,3.929259917238263e-05,-1.3649612461016526e-05,0,70,255.0,255.0,255.0
371,18.55,49.38599983563782,19.117999962285943,-20.008999956983274,-1.7429056865982307e-06,-3.654771340311474e-08,5.611464409180747e-07,5.4548245074364496e-05,2.341770522042477e-05,-1.1126478859244725e-05,0,70,255.0,255.0,255.0
372,18.6,49.385999807646265,19.11799998311615,-20.008999941782747,4.426113300479192e-07,7.374651988191881e-07,6.790083800012646e-08,3.2872435591480264e-05,7.5428112684669115e-06,-8.603345257472926e-06,0,70,255.0,255.0,255.0
373,18.650000000000002,49.38599986183578,19.118000022803383,-20.00899994809058,1.544337872549842e-06,7.177334134435864e-07,-2.9918808482923e-07,1.1196626108596032e-05,-8.332082683490948e-06,-6.080211655701124e-06,0,70,255.0,255.0,255.0
374,18.7,49.38599994401687,19.118000041660412,-20.008999969598943,1.5622739409075774e-06,-9.574306952983271e-08,-5.401203275699821e-07,-1.0479183374286654e-05,-2.4206976635447683e-05,-3.5570780539295036e-06,0,70,255.0,255.0,255.0
375,18.75,49.386,19.118,-20.009,4.964195351211236e-07,-1.702964250101185e-06,-6.548958902221638e-07,-3.215499285717088e-05,-4.0081870587405536e-05,-1.0339444521577043e-06,0,70,255.0,255.0,255.0
376,18.8,49.38599999167315,19.117999878175848,-20.009000032468947,-6.885755590944027e-07,-2.901474010648242e-06,-6.124964392210219e-07,-1.5244810911449502e-05,-7.858519834476068e-06,2.7299224922033584e-06,0,70,255.0,255.0,255.0
377,18.85,49.38599994523426,19.11799973670539,-20.009000058113088,-1.0280615560238485e-06,-2.488816233548803e-06,-3.819036410018241e-07,1.6653710342718746e-06,2.43648309184534e-05,6.493789436564421e-06,0,70,255.0,255.0,255.0
378,18.900000000000002,49.385999902958815,19.117999656147017,-20.009000067522756,-5.220384556672135e-07,-4.649909188028679e-07,3.688250443542954e-08,1.8575552979993248e-05,5.658818167138286e-05,1.0257656380925483e-05,0,70,255.0,255.0,255.0
379,18.95,49.38599990712224,19.11799971705909,-20.009000051288282,8.294937419753766e-07,3.170001933589248e-06,6.438619970906892e-07,3.548573492571342e-05,8.881153242431003e-05,1.4021523325286279e-05,0,70,255.0,255.0,255.0
380,19.0,49.386,19.118,-20.009,3.026535036904113e-06,8.416162323628062e-06,1.4390348369640407e-06,5.239591687143481e-05,0.00012103488317723952,1.7785390269647342e-05,0,70,255.0,255.0,255.0
381,19.05,49.3860001976696,19.118000525010675,-20.008999913140936,4.4972079229758426e-06,1.1642443755996082e-05,1.888839315966013e-06,6.430998571433527e-06,8.016374117479508e-06,2.0678889043129352e-07,0,70,255.0,255.0,255.0
382,19.1,49.386000411416695,19.118001070062284,-20.0089998257649,3.6696348940474763e-06,9.217799735376026e-06,1.4597137260071701e-06,-3.9533919728567756e-05,-0.0001050021349422805,-1.7371812488784755e-05,0,70,255.0,255.0,255.0
383,19.150000000000002,49.386000526329,19.118001352608555,-20.0089997818184,5.438159501190092e-07,1.1422302617678847e-06,1.5165806708751227e-07,-8.549883802856902e-05,-0.00021802064400204053,-3.4950413868000806e-05,0,70,255.0,255.0,255.0
384,19.200000000000003,49.386000427494196,19.118001090103217,-20.008999825247933,-4.8802489088095495e-06,-1.2584264664828336e-05,-2.0353276607929607e-06,-0.00013146375632857031,-0.0003310391530618005,-5.252901524721685e-05,0,70,255.0,255.0,255.0
385,19.25,49.386,19.118,-20.009,-1.2602559682737576e-05,-3.1961685044411064e-05,-5.101243457633999e-06,-0.00017742867462856835,-0.00044405766212155244,-7.010761662643164e-05,0,70,255.0,255.0,255.0
386,19.3,49.38599921764846,19.117998021781453,-20.009000314967302,-1.7300256132808966e-05,-4.3668301013336086e-05,-6.9428608246430295e-06,-1.0479183374284594e-05,-2.4206976635441876e-05,-3.557078053928521e-06,0,70,255.0,255.0,255.0
387,19.35,49.38599840909897,19.117995983045468,-20.0090006388273,-1.365047802016605e-05,-3.438238270795528e-05,-5.456951263026855e-06,0.00015647030787999916,0.0003956437088506687,6.29934605185746e-05,0,70,255.0,255.0,255.0
388,19.400000000000002,49.38599799172524,19.117994933418757,-20.009000805203648,-1.6532253448088251e-06,-4.103930128268647e-06,-6.435147727854779e-07,0.00032341979913428286,0.0008154943943367792,0.00012954399909107772,0,70,255.0,255.0,255.0
389,19.450000000000003,49.38599838290101,19.117995922528028,-20.009000647719997,1.869150189326271e-05,4.716705672572381e-05,7.497448646081101e-06,0.0004903692903885666,0.0012353450798228897,0.00019609453766358082,0,70,255.0,255.0,255.0
390,19.5,49.386,19.118,-20.009,4.738370369404619e-05,0.00011943057785401618,1.8965938993571952e-05,0.0006573187816428384,0.0016551957653089706,0.00026264507623607923,0,70,255.0,255.0,255.0
391,19.55,49.38600293173656,19.1180073878635,-20.008998826989853,6.470381660826002e-05,0.0001630307602973483,2.58826039826061e-05,3.548573492570485e-05,8.88115324242883e-05,1.402152332528276e-05,0,70,255.0,255.0,255.0
392,19.6,49.38600595218746,19.118014997755832,-20.008997618925893,5.0932277186616724e-05,0.00012831173109644517,2.036809132610025e-05,-0.0005863473117914287,-0.001477572700460394,-0.00023460202958551371,0,70,255.0,255.0,255.0
393,19.650000000000002,49.38600750677008,19.118018913716416,-20.008996997367017,6.069085429116322e-06,1.5273490251306728e-05,2.422401024054389e-06,-0.0012081803585085624,-0.003043956933345076,-0.0004832255824963101,0,70,255.0,255.0,255.0
394,19.700000000000003,49.3860060409018,19.118015219784667,-20.00899758387209,-6.988575866424124e-05,-0.0001760839622380668,-2.7954466923531452e-05,-0.0018300134052256958,-0.004610341166229759,-0.0007318491354071067,0,70,255.0,255.0,255.0
395,19.75,49.386,19.118,-20.009,-0.00017693225509344719,-0.00044576062637165367,-7.07625125166538e-05,-0.002451846451942785,-0.006176725399114328,-0.0009804726883178854,0,70,255.0,255.0,255.0
396,19.8,49.385989055405304,19.117972426764535,-20.00900437707329,-0.0002415150103002311,-0.000608454740176057,-9.658755510578137e-05,-0.0001314637563285346,-0.00033103915306171086,-5.252901524720264e-05,0,70,255.0,255.0,255.0
397,19.85,49.38597778215122,19.117944025931187,-20.009008885469118,-0.00019007863072630082,-0.0004788645416778253,-7.601541404137414e-05,0.002188918939285716,0.005514647092990906,0.0008754146578234801,0,70,255.0,255.0,255.0
398,19.900000000000002,49.38597198119448,19.117929411715572,-20.0090112053283,-2.262311637165628e-05,-5.699003087695858e-05,-9.046089323432109e-06,0.004509301634899967,0.011360333339043524,0.001803358330894163,0,70,255.0,255.0,255.0
399,19.950000000000003,49.385977453491826,19.117943198333304,-20.009009016791655,0.0002608515327637023,0.0006571687922265433,0.00010432041904804467,0.006829684330514217,0.01720601958509614,0.0027313020039648455,0,70,255.0,255.0,255.0
400,20.0,49.386,19.118,-20.009,0.0006603453166797425,0.0016636119276325983,0.0002640841110730433,0.009150067026128306,0.02305170583114835,0.003659245677035461,0,70,255.0,255.0,255.0
401,20.05,49.386040846642224,19.118102905078352,-20.00898366471699,0.0009013562245926644,0.0022707882004068796,0.00036046761644051935,0.0004903692903884364,0.0012353450798225606,0.0001960945376635278,0,70,255.0,255.0,255.0
402,20.1,49.38608291920769,19.118208898519416,-20.00896683919764,0.0007093822457185868,0.0017871464356148557,0.0002836935648393963,-0.008169328445351433,-0.02058101567150323,-0.0032670566017084053,0,70,255.0,255.0,255.0
403,20.150000000000002,49.386104568452026,19.11826343942129,-20.00895818131979,8.442338005750926e-05,0.0002126866332565272,3.3761956269674114e-05,-0.016829026181091302,-0.04239737642282902,-0.006730207741080338,0,70,255.0,255.0,255.0
404,20.200000000000003,49.38608414513091,19.118211986882113,-20.008966348961295,-0.0009735203723905675,-0.0024525912066681067,-0.0003893272092686472,-0.02548872391683117,-0.06421373717415481,-0.010193358880452271,0,70,255.0,255.0,255.0
405,20.25,49.386,19.118,-20.009,-0.002464449011625523,-0.00620868708415874,-0.0009855739317755192,-0.034148421652570426,-0.08603009792547905,-0.013656510019823959,0,70,255.0,255.0,255.0
406,20.3,49.385847558025795,19.117615952922034,-20.009060964058747,-0.0033639098880704262,-0.008474698061451461,-0.0013452829106562958,-0.001830013405225199,-0.004610341166228507,-0.0007318491354069093,0,70,255.0,255.0,255.0
407,20.35,49.38569054101807,19.117220379991153,-20.00912375774033,-0.002647450352148046,-0.006669721200781596,-0.001058758845316211,0.03048839484212003,0.07680941559302204,0.01219281174901014,0,70,255.0,255.0,255.0
408,20.400000000000002,49.38560974499745,19.117016830599255,-20.009156069392542,-0.0003150704038583805,-0.0007937565021491448,-0.00012600173575526416,0.06280680308946525,0.15822917235227257,0.025117472633427194,0,70,255.0,255.0,255.0
409,20.450000000000003,49.38568596598456,19.117208854138237,-20.00912558736317,0.003633229956798569,0.00915319603444589,0.0014529884180265445,0.09512521133681048,0.23964892911152313,0.03804213351784424,0,70,255.0,255.0,255.0
410,20.5,49.386,19.118,-20.009,0.00919745072982235,0.02317113640900236,0.003678211616029033,0.12744361958415334,0.3210686858707679,0.05096679440226038,0,70,255.0,255.0,255.0
411,20.55,49.386568921254614,19.119433283233498,-20.00877247904803,0.01255428332768904,0.031628004045398964,0.005020664026184665,0.006829684330512342,0.017206019585091492,0.0027313020039641048,0,70,255.0,255.0,255.0
412,20.6,49.387154916720064,19.120909581515967,-20.008538129841046,0.009880419162873596,0.02489173836751154,0.003951341816425447,-0.11378425092312866,-0.28665664670058494,-0.04550419039433217,0,70,255.0,255.0,255.0
413,20.650000000000002,49.387456451558194,19.12166923818168,-20.008417541110052,0.0011758582353760122,0.002962339375340073,0.00047024498675138186,-0.23439818617676966,-0.5905193129862614,-0.09373968279262845,0,70,255.0,255.0,255.0
414,20.700000000000003,49.38717199093089,19.12095259656493,-20.008531301586036,-0.013559399454803701,-0.03416019293111544,-0.0054226264628375286,-0.35501212143041067,-0.8943819792719379,-0.14197517519092473,0,70,255.0,255.0,255.0
415,20.75,49.386,19.118,-20.009,-0.03432535390766387,-0.0864758585518507,-0.013727272532340613,-0.4756260566840431,-1.1982446455575912,-0.19021066758921756,0,70,255.0,255.0,255.0
416,20.8,49.38354475695574,19.11181171414395,-20.00998191974914,-0.06677322342268933,-0.1683893181201444,-0.02670537319408278,-0.8222887239169567,-2.07829373717411,-0.3289133588804616,0,70,255.0,255.0,255.0
417,20.85,49.37903379210171,19.10042769394497,-20.011786122895483,-0.11655422629936071,-0.2943052322692647,-0.04661860842038724,-1.1689513911498706,-2.958342828790629,-0.4676160501717056,0,70,255.0,255.0,255.0
418,20.900000000000002,49.37160044876979,19.08164781667401,-20.014759366167254,-0.18366836253767804,-0.4642236009992115,-0.073466978211254,-1.5156140583827842,-3.838391920407148,-0.6063187414629496,0,70,255.0,255.0,255.0
419,20.950000000000003,49.360378070291915,19.053271959602036,-20.019248406292686,-0.2681156321376413,-0.678144424309985,-0.10725048256668307,-1.8622767256156978,-4.718441012023667,-0.7450214327541936,0,70,255.0,255.0,255.0
420,21.0,49.3445,19.0131,-20.0256,-0.36989603509924257,-0.9360677022015649,-0.1479691214866713,-2.208939392848585,-5.598490103640117,-0.8837241240454281,0,70,255.0,255.0,255.0
421,21.05,49.32328965092239,18.95941586019069,-20.034084641955406,-0.4776053896370351,-1.2089507315647856,-0.19104717124986154,-2.0994347886630544,-5.316831070888554,-0.8393978664821573,0,70,255.0,255.0,255.0
422,21.1,49.29683071487312,18.892439642704147,-20.04466777857702,-0.5798395139655509,-1.467750809290428,-0.23190890813488824,-1.9899301844775232,-5.035172038136992,-0.7950716089188866,0,70,255.0,255.0,255.0
423,21.150000000000002,49.265396953362654,18.812875495122267,-20.057238594220927,-0.6765984080847903,-1.712467935378492,-0.2705543321417513,-1.8804255802919922,-4.75351300538543,-0.7507453513556158,0,70,255.0,255.0,255.0
424,21.200000000000003,49.22926212790146,18.72142756502692,-20.071686273243227,-0.7678820719947529,-1.9431021098289776,-0.3069834432704509,-1.7709209761064613,-4.471853972633867,-0.706419093792345,0,70,255.0,255.0,255.0
425,21.25,49.1887,18.6188,-20.0879,-0.8536905056954329,-2.15965333264187,-0.3411962415209845,-1.6614163719209394,-4.190194939882318,-0.6620928362290792,0,70,255.0,255.0,255.0
426,21.3,49.143938239354696,18.50557684509331,-20.105787512429234,-0.9367892180292149,-2.3693277556207293,-0.3743059418064837,-1.6625321214302908,-4.19678197927193,-0.6622951751908696,0,70,255.0,255.0,255.0
427,21.35,49.095020148405816,18.38186173523843,-20.125330762796448,-1.0199437178384643,-2.5793315305690694,-0.4074257590400724,-1.663647870939642,-4.203369018661542,-0.6624975141526599,0,70,255.0,255.0,255.0
428,21.400000000000002,49.04194293777959,18.247638202836907,-20.14653025694905,-1.1031540051231816,-2.7896646574868895,-0.4405556932217506,-1.6647636204489935,-4.209956058051154,-0.6626998531144503,0,70,255.0,255.0,255.0
429,21.450000000000003,48.98470381810224,18.102889780290248,-20.169386500734433,-1.186420079883366,-3.00032713637419,-0.47369574435151834,-1.665879369958345,-4.216543097440766,-0.6629021920762407,0,70,255.0,255.0,255.0
430,21.5,48.9233,17.9476,-20.1939,-1.2697419421190126,-3.2113189672309574,-0.5068459124293733,-1.666995119467705,-4.223130136830374,-0.663104531038031,0,70,255.0,255.0,255.0
431,21.55,48.85774059165882,17.781784759436082,-20.22006690832765,-1.3524057382461012,-3.420698245952309,-0.5397450615241811,-1.6395567256157888,-4.152041012023567,-0.6528614327542638,0,70,255.0,255.0,255.0
432,21.6,48.7880822915036,17.605589416342106,-20.24786597023718,-1.4336976146805938,-3.62652306843332,-0.5721320557048005,-1.6121183317638728,-4.0809518872167585,-0.6426183344704965,0,70,255.0,255.0,255.0
433,21.650000000000002,48.714393695518964,17.419191693530085,-20.277271577982894,-1.5136175714224906,-3.8287934346739907,-0.6040068949712317,-1.5846799379119565,-4.009862762409951,-0.6323752361867293,0,70,255.0,255.0,255.0
434,21.700000000000003,48.63674339968955,17.222769313812037,-20.30825812381907,-1.5921656084717917,-4.02750934467432,-0.6353695793234745,-1.5572415440600405,-3.9387736376031435,-0.6221321379029621,0,70,255.0,255.0,255.0
435,21.75,48.5552,17.0165,-20.3408,-1.6693417258284915,-4.222670798434297,-0.6662201087615266,-1.5298031502081262,-3.867684512796359,-0.6118890396191956,0,70,255.0,255.0,255.0
436,21.8,48.46982819401002,16.800551317162356,-20.374872054260173,-1.7453798289863571,-4.414887260570057,-0.6965858120968148,-1.5117209761064558,-3.8209739726339356,-0.6027390937923169,0,70,255.0,255.0,255.0
437,21.85,48.380677085579784,16.57505019939312,-20.410450956254827,-1.8205138234391394,-4.604768195697696,-0.7264940181407592,-1.4936388020047855,-3.7742634324715127,-0.5935891479654383,0,70,255.0,255.0,255.0
438,21.900000000000002,48.287791880144525,16.340113423042713,-20.447513831119398,-1.8947437091868378,-4.792313603817214,-0.7559447268933596,-1.4755566279031154,-3.72755289230909,-0.5844392021385596,0,70,255.0,255.0,255.0
439,21.950000000000003,48.191217783139514,16.09585776446153,-20.48603780398931,-1.9680694862294528,-4.97752348492861,-0.784937938354616,-1.457474453801445,-3.6808423521466667,-0.5752892563116809,0,70,255.0,255.0,255.0
440,22.0,48.091,15.8424,-20.526,-2.040491154566979,-5.160397839031872,-0.8134736525245264,-1.4393922796997742,-3.634131811984254,-0.5661393104848012,0,70,255.0,255.0,255.0
441,22.05,47.987187432301084,15.579865171914483,-20.56737767463166,-2.111786945808434,-5.340440711767498,-0.8415596900885522,-1.4124393699583944,-3.5675830974407123,-0.5573021920762131,0,70,255.0,255.0,255.0
442,22.1,47.879843766177274,15.30841138608536,-20.610148604743518,-2.18173509156282,-5.517156148775949,-0.8692038717321485,-1.3854864602170145,-3.501034382897171,-0.548465073667625,0,70,255.0,255.0,255.0
443,22.150000000000002,47.769036383902915,15.028205014299,-20.654290697539537,-2.2503355918301375,-5.690544150057221,-0.8964061974553155,-1.3585335504756346,-3.4344856683536293,-0.539627955259037,0,70,255.0,255.0,255.0
444,22.200000000000003,47.65483266775237,14.739412428341751,-20.699781860223705,-2.3175884466103858,-5.860604715611316,-0.9231666672580531,-1.3315806407342548,-3.3679369538100876,-0.5307908368504489,0,70,255.0,255.0,255.0
445,22.25,47.5373,14.4422,-20.7466,-2.383493655903561,-6.027337845438224,-0.9494852811403592,-1.3046277309928733,-3.3013882392665863,-0.5219537184418597,0,70,255.0,255.0,255.0
446,22.3,47.41651407678564,14.136755995179694,-20.79471884721318,-2.447552387779885,-6.1894298923599695,-0.975111427548982,-1.257721544060054,-3.1822936376031534,-0.5030921379030349,0,70,255.0,255.0,255.0
447,22.35,47.29258384971112,13.823356256265381,-20.84409542477112,-2.509265810309568,-6.345567209198544,-0.9997944949306634,-1.2108153571272346,-3.06319903593972,-0.48423055736421006,0,70,255.0,255.0,255.0
448,22.400000000000002,47.16562658424378,13.502298519761217,-20.894682578722467,-2.56863392349261,-6.495749795953946,-1.0235344832854036,-1.1639091701944155,-2.944104434276287,-0.46536897682538525,0,70,255.0,255.0,255.0
449,22.450000000000003,47.035759545850965,13.17388052217136,-20.946433155115876,-2.625656727329011,-6.639977652626176,-1.0463313926132027,-1.1170029832615962,-2.825009832612854,-0.44650739628656044,0,70,255.0,255.0,255.0
450,22.5,46.9031,12.8384,-20.9993,-2.680334221818767,-6.778250779215226,-1.068185222914059,-1.0700967963287624,-2.705915230949458,-0.42764581574773786,0,70,255.0,255.0,255.0
451,22.55,46.76775786055637,12.496135647366716,-21.053238936515623,-2.733107503072025,-6.911711718792631,-1.0892745997155422,-1.040834453801524,-2.632522352146693,-0.4159292563115747,0,70,255.0,255.0,255.0
452,22.6,46.629813634978234,12.147289988853062,-21.10821769617203,-2.784417667198921,-7.041503014429899,-1.109778148545217,-1.0115721112742853,-2.5591294733439276,-0.4042126968754115,0,70,255.0,255.0,255.0
453,22.650000000000002,46.489340479121914,11.79204650665605,-21.16420698757062,-2.834264714199455,-7.167624666127027,-1.1296958694030839,-0.9823097687470467,-2.4857365945411627,-0.3924961374392483,0,70,255.0,255.0,255.0
454,22.700000000000003,46.346411548843726,11.430588682972685,-21.221177519312807,-2.882648644073627,-7.290076673884018,-1.1490277622891423,-0.9530474262198081,-2.412343715738398,-0.38077957800308515,0,70,255.0,255.0,255.0
455,22.75,46.2011,11.0631,-21.2791,-2.9295694568214334,-7.408859037700863,-1.1677738272033915,-0.923785083692561,-2.338950836935659,-0.36906301856691925,0,70,255.0,255.0,255.0
456,22.8,46.05348088098887,10.689768615353417,-21.33794460672433,-2.9749135999320995,-7.52369123246951,-1.1859021735888278,-0.8899806407340594,-2.2543369538101103,-0.35607083685051305,0,70,255.0,255.0,255.0
457,22.85,45.903636810375914,10.310801388322309,-21.397679390540784,-3.0185675208948406,-7.634292733081877,-1.2033809108884432,-0.8561761977755578,-2.169723070684562,-0.3430786551341068,0,70,255.0,255.0,255.0
458,22.900000000000002,45.751652299268514,9.92640985361449,-21.45827187099508,-3.0605312197096564,-7.740663539537969,-1.2202100391022388,-0.8223717548170562,-2.0851091875590138,-0.3300864734177006,0,70,255.0,255.0,255.0
459,22.950000000000003,45.59761185877408,9.536805545937774,-21.519689567632916,-3.1008046963765477,-7.842803651837782,-1.2363895582302138,-0.7885673118585546,-2.000495304433465,-0.3170942917012944,0,70,255.0,255.0,255.0
460,23.0,45.4416,9.1422,-21.5819,-3.1393879508955105,-7.94071306998131,-1.2519194682723678,-0.7547628689000483,-1.9158814213079154,-0.3041021099848944,0,70,255.0,255.0,255.0
461,23.05,45.28370021548812,8.742803491219584,-21.644870636587058,-3.176342097199553,-8.034467351329331,-1.2667967059291552,-0.723402983261619,-1.834289832612892,-0.2909873962865854,0,70,255.0,255.0,255.0
462,23.1,45.123991923518076,8.338821257857635,-21.708568741664838,-3.2117282492216734,-8.124142053242602,-1.2810182079010266,-0.6920430976231897,-1.7526982439178687,-0.27787268258827635,0,70,255.0,255.0,255.0
463,23.150000000000002,44.96255352380397,7.930457278885891,-21.772961528449084,-3.2455464069618722,-8.209737175721122,-1.294583974187983,-0.6606832119847603,-1.6711066552228453,-0.26475796888996733,0,70,255.0,255.0,255.0
464,23.200000000000003,44.799463416059915,7.517915533276091,-21.83801621015555,-3.27779657042015,-8.29125271876489,-1.3074940047900239,-0.629323326346331,-1.589515066527822,-0.2516432551916583,0,70,255.0,255.0,255.0
465,23.25,44.6348,7.1014,-21.9037,-3.308478739596504,-8.3686886823739,-1.3197482997071481,-0.5979634407079004,-1.5079234778328043,-0.23852854149334846,0,70,255.0,255.0,255.0
466,23.3,44.468642257058654,6.681115019768214,-21.969980046927436,-3.3375580112696994,-8.442023362213181,-1.3313430026945579,-0.5652074262198904,-1.4254637157383956,-0.22525957800303667,0,70,255.0,255.0,255.0
467,23.35,44.30107149555176,6.257266380247082,-22.03682324279988,-3.364999482218494,-8.511235053947741,-1.3422742575074522,-0.5324514117318804,-1.3430039536439868,-0.21199061451272488,0,70,255.0,255.0,255.0
468,23.400000000000002,44.13216960551554,5.83006023084184,-22.10419641520861,-3.390803152442888,-8.576323757577581,-1.3525420641458308,-0.49969539724387035,-1.260544191549578,-0.19872165102241313,0,70,255.0,255.0,255.0
469,23.450000000000003,43.96201847698621,5.399702720957723,-22.17206639174489,-3.414969021942882,-8.637289473102701,-1.3621464226096935,-0.46693938275586033,-1.1780844294551693,-0.18545268753210134,0,70,255.0,255.0,255.0
470,23.5,43.7907,4.9664,-22.2404,-3.4374970907184736,-8.694132200523097,-1.3710873328990407,-0.4341833682678633,-1.0956246673607666,-0.17218372404179583,0,70,255.0,255.0,255.0
471,23.55,43.61829635627724,4.530358029707524,-22.309164375703197,-3.458369857721633,-8.746863199817954,-1.3793832832926187,-0.40072731185850496,-1.0136153044334424,-0.15965429170132542,0,70,255.0,255.0,255.0
472,23.6,43.44489089427484,4.091782021153965,-22.378327887135647,-3.4775698219043245,-8.795493730966442,-1.3870527620691735,-0.3672712554491466,-0.9316059415061181,-0.147124859360855,0,70,255.0,255.0,255.0
473,23.650000000000002,43.270567254133816,3.65087699774664,-22.447859210716498,-3.4950969832665484,-8.840023793968566,-1.3940957692287046,-0.3338151990397883,-0.8495965785787938,-0.13459542702038457,0,70,255.0,255.0,255.0
474,23.700000000000003,43.095409075995185,3.207847982892869,-22.517727022864904,-3.510951341808304,-8.880453388824323,-1.400512304771212,-0.30035914263042995,-0.7675872156514696,-0.12206599467991416,0,70,255.0,255.0,255.0
475,23.75,42.9195,2.7629,-22.5879,-3.525132897529591,-8.916782515533711,-1.4063023686966958,-0.26690308622109526,-0.6855778527241654,-0.10953656233944109,0,70,255.0,255.0,255.0
476,23.8,42.74292271783236,2.3162384614016513,-22.65834645025978,-3.537698557843777,-8.948987838515013,-1.411443864134972,-0.23572332634636578,-0.6026350665278545,-0.09612325519160779,0,70,255.0,255.0,255.0
477,23.85,42.56575612734885,1.8680703351369832,-22.729033208657544,-3.5487052301642277,-8.977046022186498,-1.4159146942158567,-0.20454356647163632,-0.5196922803315436,-0.08270994804377449,0,70,255.0,255.0,255.0
478,23.900000000000002,42.388078177949154,1.4186029781714857,-22.79992674192541,-3.5581529144909414,-9.000957066548168,-1.4197148589393496,-0.17336380659690687,-0.4367494941352327,-0.06929664089594119,0,70,255.0,255.0,255.0
479,23.950000000000003,42.20996681903298,0.9680437474706506,-22.870993516795526,-3.566041610823919,-9.020720971600023,-1.4228443583054509,-0.14218404672217738,-0.35380670793892177,-0.055883333748107895,0,70,255.0,255.0,255.0
480,24.0,42.0315,0.5166,-22.9422,-3.5723713191631594,-9.036337737342059,-1.4253031923141604,-0.11100428684745367,-0.2708639217425457,-0.04247002660028265,0,70,255.0,255.0,255.0
481,24.05,41.85275677239332,0.06447852468583216,-23.01351302325768,-3.577075910903243,-9.047841446122002,-1.4271132601674708,-0.07717938275588475,-0.18928442945513552,-0.029932687532130055,0,70,255.0,255.0,255.0
482,24.1,41.67382059632975,-0.38811616170197344,-23.084900878234194,-3.5800892574387477,-9.055266180287573,-1.4282964610673734,-0.043354478664315826,-0.1077049371677253,-0.017395348463977455,0,70,255.0,255.0,255.0
483,24.150000000000002,41.49477603406952,-0.8409801104326985,-23.156332221581863,-3.581411358769675,-9.058611939838773,-1.4288527950138685,-0.009529574572746904,-0.026125444880315096,-0.0048580093958248555,0,70,255.0,255.0,255.0
484,24.200000000000003,41.31570764787285,-1.2939093727756241,-23.227775709953026,-3.581042214896023,-9.057878724775604,-1.428782262006956,0.024295329518822018,0.055454047407095086,0.007679329672327741,0,70,255.0,255.0,255.0
485,24.25,41.1367,-1.7467,-23.2992,-3.578981825817792,-9.053066535098065,-1.4280848620466358,0.058120233610384986,0.1370335396944995,0.020216668740486554,0,70,255.0,255.0,255.0
486,24.3,40.957836592594354,-2.199147760145019,-23.370573456709497,-3.5752937985432944,-9.04415837699699,-1.4267430951951237,0.08940085736953565,0.21929278434850064,0.03345400532000139,0,70,255.0,255.0,255.0
487,24.35,40.77919668733213,-2.6510472883291665,-23.441863278405698,-3.5700417400808386,-9.031137256663214,-1.4247394615146356,0.1206814811286863,0.3015520290025018,0.04669134189951622,0,70,255.0,255.0,255.0
488,24.400000000000002,40.60085848577273,-3.102192936440808,-23.513036371747145,-3.5632256504304256,-9.014003174096738,-1.422073961005172,0.15196210488783696,0.38381127365650297,0.05992867847903106,0,70,255.0,255.0,255.0
489,24.450000000000003,40.42290018947555,-3.552379056368309,-23.5840596433924,-3.5548455295920545,-8.992756129297565,-1.4187465936667323,0.18324272864698762,0.4660705183105041,0.07316601505854589,0,70,255.0,255.0,255.0
490,24.5,40.2454,-4.0014,-23.6549,-3.5449013775657274,-8.96739612226569,-1.4147573594993175,0.21452335240613252,0.5483297629644994,0.0864033516380669,0,70,255.0,255.0,255.0
491,24.55,40.06843685722925,-4.449049884105795,-23.72552434990433,-3.533348894923622,-8.93790904589005,-1.4101063590520657,0.24757595327807042,0.6311532920611183,0.09963666625200515,0,70,255.0,255.0,255.0
492,24.6,39.89209265434169,-4.895121884981437,-23.795899608143035,-3.5201437822379202,-8.904280793059577,-1.4047936928741167,0.2806285541500083,0.7139768211577371,0.1128699808659434,0,70,255.0,255.0,255.0
493,24.650000000000002,39.71645002283951,-5.339408943804186,-23.865992691429568,-3.5052860395086207,-8.866511363774276,-1.398819360965471,0.31368115502194627,0.7968003502543559,0.12610329547988164,0,70,255.0,255.0,255.0
494,24.700000000000003,39.54159159422488,-5.781704001751296,-23.9357705164774,-3.4887756667357253,-8.82460075803414,-1.3921833633261285,0.34673375589388417,0.8796238793509749,0.1393366100938199,0,70,255.0,255.0,255.0
495,24.75,39.3676,-6.2218,-24.0052,-3.470612663919233,-8.778548975839179,-1.3848856999560895,0.3797863567658162,0.9624474084476446,0.1525699247077572,0,70,255.0,255.0,255.0
496,24.8,39.19455757848864,-6.65949030343184,-24.074248343673183,-3.450814621762122,-8.728381439442808,-1.376943468596588,0.41213532951859666,1.0442540474071291,0.16511932967230275,0,70,255.0,255.0,255.0
497,24.85,39.02254549530108,-7.09456997174516,-24.14288388902219,-3.4293991309673726,-8.674123571098464,-1.368373766988859,0.44448430227137714,1.1260606863666136,0.17766873463684832,0,70,255.0,255.0,255.0
498,24.900000000000002,38.851644622869195,-7.5268344883425655,-24.211075262534603,-3.406366191534984,-8.615775370806146,-1.359176595132903,0.4768332750241576,1.2078673253260979,0.19021813960139386,0,70,255.0,255.0,255.0
499,24.950000000000003,38.68193583362487,-7.9560793366266545,-24.27879109069801,-3.381715803464956,-8.553336838565853,-1.3493519530287192,0.5091822477769381,1.2896739642855823,0.20276754456593943,0,70,255.0,255.0,255.0
500,25.0,38.5135,-8.3821,-24.346,-3.355447966757292,-8.486807974377593,-1.3388998406763093,0.5415312205297127,1.3714806032450753,0.21531694953048763,0,70,255.0,255.0,255.0
501,25.05,38.34641842881618,-8.804691302166885,-24.412670275402935,-3.3275366180278767,-8.416149196338703,-1.3277997665615855,0.5749227286468899,1.454870518310467,0.22868601505845998,0,70,255.0,255.0,255.0
502,25.1,38.18077416445397,-9.223645428037994,-24.478768835768218,-3.297955693892602,-8.341320922546544,-1.316031239170463,0.608314236764067,1.538260433375859,0.24205508058643235,0,70,255.0,255.0,255.0
503,25.150000000000002,38.01665068568368,-9.638753902825663,-24.544262258432045,-3.266705194351469,-8.262323153001114,-1.3035942585029419,0.6417057448812443,1.6216503484412506,0.2554241461144047,0,70,255.0,255.0,255.0
504,25.200000000000003,37.854131471275586,-10.049808251742231,-24.609117120730577,-3.2337851194044767,-8.179155887702416,-1.290488824559022,0.6750972529984215,1.7050402635066424,0.2687932116423771,0,70,255.0,255.0,255.0
505,25.25,37.6933,-10.4566,-24.6733,-3.1991954690516287,-8.091819126650453,-1.2767149373387046,0.7084887611155857,1.7884301785720709,0.28216227717035736,0,70,255.0,255.0,255.0
506,25.3,37.534238306246635,-10.858922887900654,-24.73677775471509,-3.1630229061263866,-8.000445775202374,-1.262289465157097,0.7384137558940606,1.8665038793509847,0.29485661009393616,0,70,255.0,255.0,255.0
507,25.35,37.377022646883006,-11.256579516102933,-24.79951836790494,-3.1253540934622217,-7.905168738715352,-1.2472292763293105,0.7683387506725354,1.9445775801298986,0.3075509430175149,0,70,255.0,255.0,255.0
508,25.400000000000002,37.221727834396056,-11.649374700354887,-24.861490103737257,-3.0861890310591322,-7.8059880171893825,-1.231534370855345,0.7982637454510103,2.0226512809088124,0.3202452759410937,0,70,255.0,255.0,255.0
509,25.450000000000003,37.068428681272735,-12.037113256404567,-24.92266122637971,-3.0455277189171195,-7.7029036106244675,-1.2152047487352007,0.8281887402294852,2.1007249816877263,0.3329396088646725,0,70,255.0,255.0,255.0
510,25.5,36.9172,-12.4196,-24.983,-3.003370157036186,-7.595915519020616,-1.1982404099688788,0.8581137350079402,2.178798682466642,0.3456339417882486,0,70,255.0,255.0,255.0
511,25.55,36.76812034619727,-12.79663234623053,-25.04247390573672,-2.959491757466566,-7.484579702851807,-1.1805943728100246,0.897022247776845,2.274633964285633,0.36020754456591303,0,70,255.0,255.0,255.0
512,25.6,36.621283248013974,-13.167978107550343,-25.101047292612023,-2.9136679322585004,-7.368452122592049,-1.162219655512287,0.9359307605457499,2.3704692461046233,0.37478114734357754,0,70,255.0,255.0,255.0
513,25.650000000000002,36.47678597673206,-13.533397695754896,-25.158683726618968,-2.8658986814119896,-7.247532778241341,-1.1431162580756662,0.9748392733146547,2.466304527923614,0.389354750121242,0,70,255.0,255.0,255.0
514,25.700000000000003,36.334725803633425,-13.892651522639637,-25.21534677375061,-2.8161840049270332,-7.121821669799684,-1.123284180500162,1.0137477860835595,2.562139809742605,0.40392835289890644,0,70,255.0,255.0,255.0
515,25.75,36.1952,-14.2455,-25.271,-2.7645239028036364,-6.991318797267086,-1.1027234227857765,1.0526562988524653,2.6579750915616103,0.41850195567658055,0,70,255.0,255.0,255.0
516,25.8,36.05830590896427,-14.591702127177262,-25.325606622338043,-2.710914064007362,-6.855939413390376,-1.081413043602803,1.091737252998473,2.757200263506671,0.433913211642342,0,70,255.0,255.0,255.0
517,25.85,35.92414116106105,-14.93101125369576,-25.37912846164698,-2.6553501775037875,-6.715598770916415,-1.0593321016215416,1.1308182071444808,2.8564254354517318,0.44932446760810346,0,70,255.0,255.0,255.0
518,25.900000000000002,35.792803458675685,-15.263179316625626,-25.431526989786892,-2.5978322432929124,-6.5702968698452,-1.0364805968419921,1.1698991612904885,2.9556506073967923,0.4647357235738649,0,70,255.0,255.0,255.0
519,25.950000000000003,35.664390504193534,-15.587958253037002,-25.48276367861787,-2.538360261374737,-6.420033710176731,-1.0128585292641545,1.2089801154364963,3.0548757793418533,0.4801469795396263,0,70,255.0,255.0,255.0
520,26.0,35.539,-15.9051,-25.5328,-2.4769342317492655,-6.264809291911021,-0.9884658988880307,1.2480610695825014,3.154100951286921,0.49555823550539113,0,70,255.0,255.0,255.0
521,26.05,35.41672161794561,-16.214375945060446,-25.581600404911125,-2.4140359865039653,-6.105790643586655,-0.9634814527787768,1.2678687402294724,3.206644981687635,0.5038196088647495,0,70,255.0,255.0,255.0
522,26.1,35.29761290774181,-16.515635277666675,-25.629141260800083,-2.3501473577263163,-5.944144793742253,-0.9380839380015551,1.2876764108764431,3.259189012088349,0.5120809822241079,0,70,255.0,255.0,255.0
523,26.150000000000002,35.18172338856519,-16.80874663774268,-25.67540191423348,-2.2852683454163194,-5.779871742377815,-0.9122733545563654,1.307484081523414,3.311733042489063,0.5203423555834663,0,70,255.0,255.0,255.0
524,26.200000000000003,35.069102579592375,-17.093578665212465,-25.72036171177792,-2.219398949573973,-5.612971489493343,-0.8860497024432077,1.327291752170385,3.3642770728897773,0.5286037289428246,0,70,255.0,255.0,255.0
525,26.25,34.9598,-17.37,-25.764,-2.1525391701992835,-5.443444035088844,-0.859412981662084,1.3470994228173545,3.416821103290509,0.5368651023021842,0,70,255.0,255.0,255.0
526,26.3,34.85386761925325,-17.637875692580977,-25.806294958017478,-2.084541989976762,-5.2710740122630115,-0.8322931452820579,1.3727877860834705,3.4779798097426973,0.5479283528988471,0,70,255.0,255.0,255.0
527,26.35,34.75136720797171,-17.897056435637598,-25.84722009515271,-2.0152603915909344,-5.09564605411457,-0.8046201463721985,1.3984761493495868,3.539138516194885,0.55899160349551,0,70,255.0,255.0,255.0
528,26.400000000000002,34.65236298706355,-18.14738933240373,-25.886747753279202,-1.9446943750418013,-4.917160160643518,-0.7763939849325061,1.4241645126157028,3.600297222647073,0.5700548540921729,0,70,255.0,255.0,255.0
529,26.450000000000003,34.55691917743692,-18.388721486113248,-25.92485027427046,-1.8728439403293622,-4.735616331849857,-0.7476146609629803,1.449852875881819,3.6614559290992608,0.5811181046888358,0,70,255.0,255.0,255.0
530,26.5,34.4651,-18.6209,-25.9615,-1.7997090874536226,-4.551014567733599,-0.7182821744636239,1.4755412391479403,3.7226146355514516,0.5921813552855006,0,70,255.0,255.0,255.0
531,26.55,34.37696950504137,-18.84376928461566,-25.996670163018972,-1.725300053589007,-4.363193307361264,-0.6884499660929955,1.5008201154366358,3.79023577934184,0.601106979539619,0,70,255.0,255.0,255.0
532,26.6,34.292591060371336,-19.057162979782973,-26.03033755858909,-1.6496270759099567,-4.17199098979941,-0.6581714765096611,1.5260989917253311,3.8578569231322284,0.6100326037937374,0,70,255.0,255.0,255.0
533,26.650000000000002,34.212027863180616,-19.26091203264245,-26.062479872649728,-1.5726901544164718,-3.977407615048036,-0.6274467057136208,1.5513778680140267,3.9254780669226164,0.6189582280478557,0,70,255.0,255.0,255.0
534,26.700000000000003,34.13534311065993,-19.454847390334624,-26.09307479114024,-1.494489289108552,-3.7794431831071424,-0.5962756537048746,1.576656744302722,3.9930992107130048,0.6278838523019742,0,70,255.0,255.0,255.0
535,26.75,34.0626,-19.6388,-26.1221,-1.4150244799862028,-3.5780976939767437,-0.5646583204834248,1.601935620591421,4.060720354503413,0.6368094765560919,0,70,255.0,255.0,255.0
536,26.8,33.99385836058126,-19.812612768956384,-26.14953398990665,-1.33449779566716,-3.3740887582919115,-0.5326429903459495,1.6191317521702493,4.0996370728897515,0.6438037289428971,0,70,255.0,255.0,255.0
537,26.85,33.92916455054293,-19.97617644523054,-26.175358470490938,-1.2531113047691755,-3.1681339866877627,-0.5002779475891342,1.6363278837490776,4.13855379127609,0.6507979813297021,0,70,255.0,255.0,255.0
538,26.900000000000002,33.86856156021398,-20.12939373702651,-26.19955595612191,-1.1708650072922497,-2.960233379164297,-0.4675631922129785,1.6535240153279058,4.177470509662428,0.6577922337165073,0,70,255.0,255.0,255.0
539,26.950000000000003,33.812092379923364,-20.27216735254832,-26.22210896116858,-1.0877589032363828,-2.750386935721514,-0.4344987242174825,1.670720146906734,4.216387228048767,0.6647864861033125,0,70,255.0,255.0,255.0
540,27.0,33.7598,-20.4044,-26.243,-1.0037929926015798,-2.5385946563594297,-0.4010845436026486,1.6879162784855648,4.255303946435099,0.6717807384901175,0,70,255.0,255.0,255.0
541,27.05,33.71174265263361,-20.525951639558816,-26.262205077354437,-0.918052763742394,-2.322291659471068,-0.36693007252317744,1.7416928758818224,4.396815929099254,0.6943981046887084,0,70,255.0,255.0,255.0
542,27.1,33.66803953745692,-20.63651123929489,-26.27967415944715,-0.8296237050133952,-2.098913063449498,-0.3316447331337768,1.7954694732780798,4.5383279117634086,0.7170154708872992,0,70,255.0,255.0,255.0
543,27.150000000000002,33.628825095963435,-20.735725019251547,-26.29535070286265,-0.7385058164145833,-1.8684588682947205,-0.2952285254344465,1.8492460706743374,4.679839894427563,0.7396328370858901,0,70,255.0,255.0,255.0
544,27.200000000000003,33.59423376964663,-20.823239199472145,-26.30917816418543,-0.6446990979459587,-1.630929074006735,-0.25768144942518667,1.903022668070595,4.821351877091718,0.762250203284481,0,70,255.0,255.0,255.0
545,27.25,33.5644,-20.8987,-26.3211,-0.5482035496075282,-1.3863236805855597,-0.21900350510600014,1.956799265466847,4.962863859755862,0.7848675694830707,0,70,255.0,255.0,255.0
546,27.3,33.53939742888431,-20.961911872808354,-26.331084900675602,-0.4526671493632839,-1.1441366038238328,-0.1807087195613719,1.8646567443028683,4.7246192107130796,0.7469238523020368,0,70,255.0,255.0,255.0
547,27.35,33.51905649962937,-21.013312197589922,-26.339202491720453,-0.36173787517723865,-0.913861759514245,-0.14431111987579537,1.77251422313889,4.4863745616702975,0.708980135121003,0,70,255.0,255.0,255.0
548,27.400000000000002,33.50314685593227,-21.05349658596732,-26.345547632427504,-0.27541572704939243,-0.6954991476567967,-0.10981070604927061,1.6803717019749116,4.2481299126275145,0.671036417939969,0,70,255.0,255.0,255.0
549,27.450000000000003,33.49143814149012,-21.083060649563137,-26.350215182089702,-0.19370070497974512,-0.4890487682514875,-0.07720747808179754,1.588229180810933,4.009885263584732,0.6330927007589352,0,70,255.0,255.0,255.0
550,27.5,33.4837,-21.1026,-26.3533,-0.11659280896830218,-0.29451062129833105,-0.04650143597337829,1.496086659646961,3.7716406145419668,0.5951489835779046,0,70,255.0,255.0,255.0
551,27.55,33.479586031829164,-21.113000069207775,-26.354942519943144,-0.05105463880446128,-0.12927392523356065,-0.020427049231345133,1.1254401469066375,2.837827228048755,0.4478264861034068,0,70,255.0,255.0,255.0
552,27.6,33.478285664025606,-21.116305570345432,-26.355465473671032,-0.004048794277636832,-0.010727898493451515,-0.0017187873630369714,0.754793634166314,1.904013841555543,0.3005039886289091,0,70,255.0,255.0,255.0
553,27.650000000000002,33.47887228030745,-21.114851036879198,-26.355237167427344,0.024424724612171184,0.06112745892199628,0.009623349631546207,0.3841471214259904,0.9702004550623311,0.15318149115441138,0,70,255.0,255.0,255.0
554,27.700000000000003,33.48041926439287,-21.11097100227531,-26.354625907455773,0.034365917864962736,0.08629214701278298,0.01359936175240438,0.013500608685666826,0.03638706856911922,0.005858993679913604,0,70,255.0,255.0,255.0
555,27.75,33.482,-21.107,-26.354,0.025774785480739144,0.06476616577891144,0.010209248999538085,-0.3571459040546305,-0.8974263179240267,-0.14146350379457354,0,70,255.0,255.0,255.0
556,27.8,33.48288004379902,-21.104788650360536,-26.353651419551817,0.010181704581138191,0.02558430475810065,0.004032916486783366,-0.2665773319293988,-0.6698481229083824,-0.10558979671561172,0,70,255.0,255.0,255.0
557,27.85,33.48309364426822,-21.104251921028343,-26.35356681359542,-0.0008829477122011143,-0.0022186465119277514,-0.0003497306720232356,-0.1760087598041671,-0.44226992789273795,-0.0697160896366499,0,70,255.0,255.0,255.0
558,27.900000000000002,33.482867222837896,-21.104820866515883,-26.35365649786312,-0.0074191713992787685,-0.018642688031173776,-0.002938692476881723,-0.08544018767893541,-0.21469173287709353,-0.03384238255768807,0,70,255.0,255.0,255.0
559,27.950000000000003,33.48242720093839,-21.105926541335613,-26.353830788087212,-0.009426966480094778,-0.02368781979963741,-0.0037339689277920887,0.0051283844462962636,0.012886462138550825,0.0020313245212737474,0,70,255.0,255.0,255.0
560,28.0,33.482,-21.107,-26.354,-0.0069063329546494795,-0.017354041817319536,-0.0027355600247544773,0.09569695657152144,0.24046465715417895,0.03790503160023304,0,70,255.0,255.0,255.0
561,28.05,33.48176419297475,-21.107592529350075,-26.354093401849585,-0.002728179520088241,-0.006855293798844801,-0.0010806167157757635,0.07142918081092572,0.1794852635848045,0.028292700758914574,0,70,255.0,255.0,255.0
562,28.1,33.481706958901526,-21.107736345541195,-26.35411607194728,0.00023658512644319498,0.0005944845411611655,9.371005113701996e-05,0.047161405050330014,0.11850587001543002,0.018680369917596102,0,70,255.0,255.0,255.0
563,28.150000000000002,33.481767628340926,-21.10758389705727,-26.354092041120175,0.0019879609849448275,0.00499529320269837,0.000787420275983873,0.022893629289734305,0.05752647644605555,0.00906803907627763,0,70,255.0,255.0,255.0
564,28.200000000000003,33.48188553185355,-21.10728763238223,-26.35404534019538,0.002525948055416659,0.0063471321857668,0.0010005139587647952,-0.001374146470861412,-0.0034529171233189104,-0.0005442917650408385,0,70,255.0,255.0,255.0
565,28.25,33.482,-21.107,-26.354,0.0018505463378587776,0.004650001490366703,0.0007329910994798242,-0.025641922231455394,-0.06443231069268905,-0.01015662260635863,0,70,255.0,255.0,255.0
566,28.3,33.48206318430199,-21.10684123223916,-26.353974973049827,0.000731013499214772,0.0018368704372785476,0.00028955037631968783,-0.0191393913143042,-0.04809293143083557,-0.007581006320046572,0,70,255.0,255.0,255.0
567,28.35,33.48207852012569,-21.106802696806884,-26.35396889861546,-6.339279357166921e-05,-0.00015929165271692173,-2.5109532524843767e-05,-0.012636860397153003,-0.031753552168982076,-0.005005390033734514,0,70,255.0,255.0,255.0
568,28.400000000000002,33.48206226379839,-21.106843545255042,-26.353975337656177,-0.0005326725405005463,-0.0013384847796197048,-0.00021098862705377062,-0.0061343294800018065,-0.015414172907128591,-0.0024297737474224543,0,70,255.0,255.0,255.0
569,28.450000000000003,33.4820306716474,-21.106922929135465,-26.353987851131265,-0.0006768257415718584,-0.0017007089434298026,-0.0002680869072670927,0.00036820143714938816,0.0009252063547249001,0.00014584253888960327,0,70,255.0,255.0,255.0
570,28.5,33.482,-21.107,-26.354,-0.000495852396785631,-0.0012459641441472749,-0.00019640437316481961,0.006870732354300125,0.01726458561657722,0.0027214588252014796,0,70,255.0,255.0,255.0
571,28.55,33.4819830698173,-21.107042541693303,-26.354006705951086,-0.0001958744767708473,-0.00049218795026939,-7.758478950298802e-05,0.005128384446291054,0.012886462138537745,0.002031324521271716,0,70,255.0,255.0,255.0
572,28.6,33.48197896059573,-21.107052867231257,-26.35400833359087,1.6986047843481675e-05,4.268206970651795e-05,6.728078962354905e-06,0.003386036538281984,0.00850833866049827,0.0013411902173419525,0,70,255.0,255.0,255.0
573,28.650000000000002,33.481983316465495,-21.107041921922562,-26.35400660825511,0.00014272917705735594,0.00035864591578044897,5.653423223120913e-05,0.0016436886302729136,0.004130215182458794,0.000651055913412189,0,70,255.0,255.0,255.0
574,28.700000000000003,33.48199178155684,-21.10702065107591,-26.354003255279565,0.0001813549108707753,0.00045570358795240335,7.183367030357473e-05,-9.865927773615706e-05,-0.00024790829558067953,-3.907839051757456e-05,0,70,255.0,255.0,255.0
575,28.75,33.482,-21.107,-26.354,0.00013286324928374647,0.0003338550862223972,5.2626393179454266e-05,-0.001841007185745105,-0.004626031773619842,-0.0007292126944472887,0,70,255.0,255.0,255.0
