idx,t,px,py,pz,vx,vy,vz,ax,ay,az,yaw,mode,ledr,ledg,ledb
0,0.0,0.0,0.0,0.0,-3.237566591958328e-18,-0.030802699378290888,0.030802699378290888,3.885079910349993e-17,0.8536323925394904,-0.8536323925394904,0,70,255.0,255.0,255.0
1,0.05,-1.165523973104998e-19,-0.0004760971776184721,0.0004760971776184721,-1.4892806323008309e-18,0.011698758285986186,-0.011698758285986186,3.1080639282799946e-17,0.8464259140315924,-0.8464259140315924,0,70,255.0,255.0,255.0
2,0.1,-1.5540319641399971e-19,0.001163870429842037,-0.001163870429842037,-1.2950266367833343e-19,0.05383989202486836,-0.05383989202486836,2.331047946209996e-17,0.8392194355236944,-0.8392194355236944,0,70,255.0,255.0,255.0
3,0.15000000000000002,-1.3597779686224978e-19,0.0049018866261117825,-0.0049018866261117825,8.417673139091655e-19,0.09562070183835562,-0.09562070183835562,1.554031964139997e-17,0.8320129570157964,-0.8320129570157964,0,70,255.0,255.0,255.0
4,0.2,-7.770159820699978e-20,0.010719935214921018,-0.010719935214921018,1.424529300461663e-18,0.137041187726448,-0.137041187726448,7.770159820699987e-18,0.8248064785078983,-0.8248064785078983,0,70,255.0,255.0,255.0
5,0.25,0.0,0.0186,-0.0186,1.618783295979164e-18,0.17810134968914546,-0.17810134968914546,0.0,0.8176000000000008,-0.8176000000000008,0,70,255.0,255.0,255.0
6,0.30000000000000004,7.770159820699994e-20,0.028524064785078993,-0.028524064785078993,1.4245293004616639e-18,0.21880118772644808,-0.21880118772644808,-7.770159820699993e-18,0.8103935214921023,-0.8103935214921023,0,70,255.0,255.0,255.0
7,0.35000000000000003,1.359777968622498e-19,0.04047411337388823,-0.04047411337388823,8.417673139091647e-19,0.2591407018383557,-0.2591407018383557,-1.554031964139998e-17,0.803187042984204,-0.803187042984204,0,70,255.0,255.0,255.0
8,0.4,1.5540319641399976e-19,0.05443212957015798,-0.05443212957015798,-1.2950266367833343e-19,0.29911989202486844,-0.29911989202486844,-2.3310479462099963e-17,0.7959805644763055,-0.7959805644763055,0,70,255.0,255.0,255.0
9,0.45,1.1655239731049978e-19,0.07038009717761849,-0.07038009717761849,-1.4892806323008315e-18,0.3387387582859862,-0.3387387582859862,-3.1080639282799946e-17,0.7887740859684071,-0.7887740859684071,0,70,255.0,255.0,255.0
10,0.5,0.0,0.0883,-0.0883,-3.237566591958328e-18,0.37799730062170916,-0.37799730062170916,-3.885079910349993e-17,0.7815676074605085,-0.7815676074605085,0,70,255.0,255.0,255.0
11,0.55,-1.9425399551749988e-19,0.10817183803730257,-0.10817183803730257,-4.2088365695458266e-18,0.41677649080822193,-0.41677649080822193,3.697785493223493e-32,0.7695999999999994,-0.7695999999999994,0,70,255.0,255.0,255.0
12,0.6000000000000001,-3.885079910349997e-19,0.12996767607460513,-0.12996767607460513,-3.2375665919583244e-18,0.4549573006217092,-0.4549573006217092,3.885079910350001e-17,0.7576323925394904,-0.7576323925394904,0,70,255.0,255.0,255.0
13,0.65,-4.856349887937492e-19,0.15365759509325638,-0.15365759509325638,-3.237566591958302e-19,0.49253973006217094,-0.49253973006217094,7.770159820699988e-17,0.7456647850789814,-0.7456647850789814,0,70,255.0,255.0,255.0
14,0.7000000000000001,-3.8850799103499895e-19,0.17921167607460514,-0.17921167607460514,4.5325932287416676e-18,0.5295237791296072,-0.5295237791296072,1.1655239731049984e-16,0.7336971776184723,-0.7336971776184723,0,70,255.0,255.0,255.0
15,0.75,0.0,0.2066,-0.2066,1.1331483071854148e-17,0.5659094478240182,-0.5659094478240182,1.5540319641399978e-16,0.721729570157966,-0.721729570157966,0,70,255.0,255.0,255.0
16,0.8,6.993143838629995e-19,0.23579338306571088,-0.23579338306571088,1.5410816977721644e-17,0.6017408490406648,-0.6017408490406648,7.770159820699876e-18,0.7115264785078986,-0.7115264785078986,0,70,255.0,255.0,255.0
17,0.8500000000000001,1.4180541672777488e-18,0.26676558232769154,-0.26676558232769154,1.2108499053924136e-17,0.6370620956748081,-0.6370620956748081,-1.3986287677260003e-16,0.7013233868578312,-0.7013233868578312,0,70,255.0,255.0,255.0
18,0.9,1.7871367587609976e-18,0.2994910900568166,-0.2994910900568166,1.4245293004616652e-18,0.6718731877264479,-0.6718731877264479,-2.8749591336589957e-16,0.691120295207764,-0.691120295207764,0,70,255.0,255.0,255.0
19,0.9500000000000001,1.4374795668294958e-18,0.33394439852396124,-0.33394439852396124,-1.6641092282665836e-17,0.7061741251955845,-0.7061741251955845,-4.3512894995919945e-16,0.6809172035576966,-0.6809172035576966,0,70,255.0,255.0,255.0
20,1.0,0.0,0.3701,-0.3701,-4.2088365695458266e-17,0.7399649080822176,-0.7399649080822176,-5.827619865524991e-16,0.670714111907631,-0.670714111907631,0,70,255.0,255.0,255.0
21,1.05,-2.6030035399344984e-18,0.4079322296998541,-0.4079322296998541,-5.743443134134074e-17,0.7732361130291185,-0.7732361130291185,-3.10806392827995e-17,0.6601340859684084,-0.6601340859684084,0,70,255.0,255.0,255.0
22,1.1,-5.283708678075996e-18,0.4474147946146292,-0.4474147946146292,-4.5196429623738224e-17,0.8059783166790585,-0.8059783166790585,5.206007079869001e-16,0.6495540600291859,-0.6495540600291859,0,70,255.0,255.0,255.0
23,1.1500000000000001,-6.662912046250241e-18,0.4885212446794774,-0.4885212446794774,-5.374360542650692e-18,0.8381915190320373,-0.8381915190320373,1.0722820552565997e-15,0.6389740340899633,-0.6389740340899633,0,70,255.0,255.0,255.0
24,1.2000000000000002,-5.361410276282981e-18,0.5312251298295504,-0.5312251298295504,6.203177590192185e-17,0.8698757200880549,-0.8698757200880549,1.6239634025262993e-15,0.6283940081507408,-0.6283940081507408,0,70,255.0,255.0,255.0
25,1.25,0.0,0.5755,-0.5755,1.570219797099789e-16,0.9010309198471113,-0.9010309198471113,2.1756447497959965e-15,0.6178139822115165,-0.6178139822115165,0,70,255.0,255.0,255.0
26,1.3,9.712699775874994e-18,0.6213192981348729,-0.6213192981348729,2.1432690838764134e-16,0.931650698842861,-0.931650698842861,1.165523973104981e-16,0.6069771776184725,-0.6069771776184725,0,70,255.0,255.0,255.0
27,1.35,1.9716780545026234e-17,0.668656039213792,-0.668656039213792,1.6867721944102876e-16,0.9617286376089585,-0.9617286376089585,-1.9425399551750003e-15,0.5961403730254284,-0.5961403730254284,0,70,255.0,255.0,255.0
28,1.4000000000000001,2.486451142623996e-17,0.7174831312252747,-0.7174831312252747,2.0072912870141048e-17,0.9912647361454039,-0.9912647361454039,-4.001632307660499e-15,0.5853035684323844,-0.5853035684323844,0,70,255.0,255.0,255.0
29,1.4500000000000002,2.0008161538302427e-17,0.7677734821578384,-0.7677734821578384,-2.3148601132502153e-16,1.0202589944521971,-1.0202589944521971,-6.060724660145997e-15,0.5744667638393404,-0.5744667638393404,0,70,255.0,255.0,255.0
30,1.5,0.0,0.8195,-0.8195,-5.859995531444574e-16,1.048711412529338,-1.048711412529338,-8.11981701263149e-15,0.5636299592462972,-0.5636299592463008,0,70,255.0,255.0,255.0
31,1.55,-3.624779556356548e-17,0.8726353777606546,-0.8726353777606546,-7.998732022092248e-16,1.076609091599438,-1.0766090915994382,-4.351289499591944e-16,0.5522772035576967,-0.5522772035576982,0,70,255.0,255.0,255.0
32,1.6,-7.358341350202894e-17,0.9271514485302034,-0.9271514485302034,-6.295124481403768e-16,1.1039391328851076,-1.1039391328851078,7.2495591127131e-15,0.5409244478690961,-0.5409244478690954,0,70,255.0,255.0,255.0
33,1.6500000000000001,-9.279513365870964e-17,0.983019830419425,-0.983019830419425,-7.491729093791394e-17,1.1307015363863475,-1.1307015363863477,1.4934247175385395e-14,0.5295716921804956,-0.5295716921804927,0,70,255.0,255.0,255.0
34,1.7000000000000002,-7.467123587692671e-17,1.040212141539098,-1.0402121415390977,8.639122693981641e-16,1.1568963021031573,-1.156896302103157,2.261893523805769e-14,0.5182189364918951,-0.5182189364918901,0,70,255.0,255.0,255.0
35,1.75,0.0,1.0987,-1.0987,2.1869762328678507e-15,1.182523430035537,-1.1825234300355367,3.030362330072995e-14,0.506866180803291,-0.5068661808032893,0,70,255.0,255.0,255.0
36,1.8,1.3527848247838692e-16,1.1584559908225092,-1.1584559908225092,2.9851659004492574e-15,1.2076409347593877,-1.2076409347593875,1.62396340252627e-15,0.49783400815073797,-0.4978340081507383,0,70,255.0,255.0,255.0
37,1.85,2.746168734630895e-16,1.2194565666653951,-1.2194565666653951,2.349372573120478e-15,1.2323068308506109,-1.2323068308506107,-2.705569649567741e-14,0.4888018354981849,-0.48880183549818734,0,70,255.0,255.0,255.0
38,1.9000000000000001,3.463160232085985e-16,1.2816791470970268,-1.2816791470970266,2.7959625088151334e-16,1.2565211183092062,-1.2565211183092062,-5.573535639388108e-14,0.47976966284563183,-0.47976966284563644,0,70,255.0,255.0,255.0
39,1.9500000000000002,2.786767819694045e-16,1.345101151685772,-1.345101151685772,-3.224163066267635e-15,1.280283797135174,-1.2802837971351742,-8.441501629208477e-14,0.4707374901930787,-0.4707374901930855,0,70,255.0,255.0,255.0
40,2.0,0.0,1.4097,-1.4097,-8.161905378326945e-15,1.3035948673285143,-1.3035948673285147,-1.1309467619028833e-13,0.46170531754052746,-0.4617053175405381,0,70,255.0,255.0,255.0
41,2.0500000000000003,-5.048661343499847e-16,1.4754518589493095,-1.4754518589493095,-1.1140790399587804e-14,1.3263791693630111,-1.326379169363012,-6.0607246601454095e-15,0.4496667638393446,-0.4496667638393468,0,70,255.0,255.0,255.0
42,2.1,-1.0248840803503292e-15,1.5423278848082167,-1.5423278848082171,-8.767977844341532e-15,1.3485615437124487,-1.3485615437124496,1.0097322686999655e-13,0.4376282101381619,-0.4376282101381555,0,70,255.0,255.0,255.0
43,2.15,-1.2924689591756842e-15,1.6102979811924696,-1.6102979811924698,-1.0434677125881864e-15,1.3701419903768273,-1.3701419903768273,2.080071784001385e-13,0.4255896564369792,-0.4255896564369643,0,70,255.0,255.0,255.0
44,2.2,-1.0400358920006915e-15,1.6793320517178154,-1.6793320517178154,1.2032739995672384e-14,1.3911205093561467,-1.3911205093561458,3.1504112993028143e-13,0.41355110273579637,-0.4135511027357729,0,70,255.0,255.0,255.0
45,2.25,0.0,1.7494,-1.7494,3.046064528043993e-14,1.4114971006504071,-1.4114971006504047,4.220750814604233e-13,0.40151254903461897,-0.40151254903457456,0,70,255.0,255.0,255.0
46,2.3000000000000003,1.8841860549215512e-15,1.8204733733802545,-1.8204733733802545,4.1577995697901967e-14,1.43137038778857,-1.4313703877885662,2.261893523805548e-14,0.3934189364918889,-0.39341893649188286,0,70,255.0,255.0,255.0
47,2.35,3.8249194479382276e-15,1.8925302941017383,-1.8925302941017377,3.272253880424565e-14,1.450838994299596,-1.450838994299593,-3.768372109843088e-13,0.38532532394915897,-0.3853253239491913,0,70,255.0,255.0,255.0
48,2.4000000000000004,4.82355981349414e-15,1.9655505281330954,-1.965550528133095,3.8942745994708605e-15,1.469902920183486,-1.4699029201834855,-7.762933572066766e-13,0.3772317114064289,-0.37723171140649964,0,70,255.0,255.0,255.0
49,2.45,3.881466786033362e-15,2.0395138414429677,-2.0395138414429677,-4.490679691642189e-14,1.488562165440239,-1.488562165440243,-1.175749503429041e-12,0.36913809886369897,-0.369138098863808,0,70,255.0,255.0,255.0
50,2.5,0.0,2.1144,-2.1144,-1.1368067574343278e-13,1.5068167300698554,-1.5068167300698658,-1.5752056496514052e-12,0.3610444863209743,-0.3610444863211075,0,70,255.0,255.0,255.0
51,2.5500000000000003,-7.03187808533622e-15,2.1901874475296745,-2.190187447529675,-1.5517119239202004e-13,1.524587279482707,-1.5245872794827207,-8.441501629207695e-14,0.34977749019308313,-0.34977749019308635,0,70,255.0,255.0,255.0
52,2.6,-1.4274793711402578e-14,2.2668493387848305,-2.266849338784832,-1.2212217737264112e-13,1.5417944790891636,-1.5417944790891744,1.4063756170672384e-12,0.33851049406519207,-0.3385104940650652,0,70,255.0,255.0,255.0
53,2.6500000000000004,-1.8001770294800882e-14,2.3443575062751507,-2.3443575062751525,-1.4533630685295414e-14,1.558438328889226,-1.5584383288892272,2.8971662504265664e-12,0.3272434979373009,-0.32724349793704405,0,70,255.0,255.0,255.0
54,2.7,-1.4485831252132747e-14,2.4226837825103136,-2.4226837825103145,1.6759444767001507e-13,1.574518828882894,-1.574518828882879,4.387956883785882e-12,0.31597650180940984,-0.3159765018090229,0,70,255.0,255.0,255.0
55,2.75,0.0,2.5018,-2.5018,4.242620576932912e-13,1.5900359790701672,-1.5900359790701295,5.878747517145196e-12,0.3047095056815241,-0.30470950568099475,0,70,255.0,255.0,255.0
56,2.8000000000000003,2.624332628642333e-14,2.5816784365010497,-2.5816784365010474,5.791067738701783e-13,1.6050164942806007,-1.605016494280549,3.150411299302514e-13,0.29451110273581266,-0.2945111027357821,0,70,255.0,255.0,255.0
57,2.85,5.32742553976721e-14,2.6622931507589387,-2.662293150758934,4.557661706863188e-13,1.6194870893437485,-1.6194870893437079,-5.248665257284645e-12,0.2843126997901013,-0.28431269979056956,0,70,255.0,255.0,255.0
58,2.9000000000000004,6.718352136570934e-14,2.7436186467663033,-2.7436186467662975,5.4240248141710806e-14,1.633447764259611,-1.633447764259606,-1.0812371644499588e-11,0.27411429684438987,-0.27411429684535693,0,70,255.0,255.0,255.0
59,2.95,5.4061858222497655e-14,2.8256294285157786,-2.8256294285157737,-6.254709937636387e-13,1.6468985190281875,-1.6468985190282435,-1.6376078031714486e-11,0.2639158938986785,-0.26391589390014436,0,70,255.0,255.0,255.0
60,3.0,0.0,2.9083,-2.9083,-1.583367555029732e-12,1.6598393536494789,-1.65983935364962,-2.1939784418929384e-11,0.2537174909529689,-0.2537174909549371,0,70,255.0,255.0,255.0
61,3.0500000000000003,-9.79414270603571e-14,2.9916044064661285,-2.9916044064661373,-2.161255903088693e-12,1.6722427433948954,-1.6722427433950886,-1.17574950342893e-12,0.24241809886368693,-0.24241809886379637,0,70,255.0,255.0,255.0
62,3.1,-1.9882222787928576e-13,3.075514858179415,-3.075514858179433,-1.7009425053726343e-12,1.6840811635358477,-1.6840811635359998,1.9588285412071343e-11,0.23111870677440505,-0.2311187067726557,0,70,255.0,255.0,255.0
63,3.1500000000000004,-2.507323151680366e-13,3.160003106659639,-3.160003106659661,-2.0242736188154766e-13,1.695354614072336,-1.695354614072354,4.035232032757179e-11,0.21981931468512306,-0.21981931468151494,0,70,255.0,255.0,255.0
64,3.2,-2.0176160163785786e-13,3.2450409034265753,-3.2450409034265926,2.33428952738454e-12,1.70606309500436,-1.7060630950041513,6.111635524307208e-11,0.20851992259584118,-0.20851992259037427,0,70,255.0,255.0,255.0
65,3.25,0.0,3.3306,-3.3306,5.909208162425637e-12,1.7162066063319197,-1.7162066063313917,8.188039015857232e-11,0.19722053050656108,-0.19722053049923893,0,70,255.0,255.0,255.0
66,3.3000000000000003,3.6552238195500507e-13,3.416652737634439,-3.4166527376344065,8.065916838484594e-12,1.7258205321398188,-1.7258205321390978,4.387956883785454e-12,0.1873365018094073,-0.18733650180901296,0,70,255.0,255.0,255.0
67,3.35,7.420146561194711e-13,3.503173816523401,-3.5031738165233346,6.348003850804217e-12,1.7349402565128604,-1.7349402565122929,-7.310447639100074e-11,0.17745247311225362,-0.17745247311878706,0,70,255.0,255.0,255.0
68,3.4000000000000004,9.357457393064367e-13,3.590138526595145,-3.5901385265950605,7.554691993844817e-13,1.7435657794510442,-1.7435657794509767,-1.505969096657876e-10,0.16756844441509983,-0.16756844442856106,0,70,255.0,255.0,255.0
69,3.45,7.529845483289337e-13,3.6775221577779247,-3.6775221577778576,-8.711687115774518e-12,1.7516971009543705,-1.7516971009551492,-2.280893429405738e-10,0.15768441571794614,-0.15768441573833517,0,70,255.0,255.0,255.0
70,3.5,0.0,3.7653,-3.7653,-2.2053465094672816e-11,1.7593342210228389,-1.75933422102481,-3.0558177621535997e-10,0.147800387020796,-0.1478003870481075,0,70,255.0,255.0,255.0
71,3.5500000000000003,-1.3641481007596631e-12,3.8534470429961174,-3.853447042996239,-3.010241145084968e-11,1.7664591280458262,-1.7664591280485167,-1.637607803171294e-11,0.13719589389869527,-0.13719589390015863,0,70,255.0,255.0,255.0
72,3.6,-2.7692363965985977e-12,3.9419370757269805,-3.9419370757272283,-2.3691072897844245e-11,1.7730538104127083,-1.7730538104148257,2.728296201519315e-10,0.12659140077659464,-0.12659140075220987,0,70,255.0,255.0,255.0
73,3.6500000000000004,-3.4922506420577112e-12,4.030743586959787,-4.030743586960099,-2.8194494356563652e-12,1.7791182681234856,-1.7791182681237376,5.620353183355786e-10,0.1159869076544939,-0.11598690760426102,0,70,255.0,255.0,255.0
74,3.7,-2.810176591677876e-12,4.1198400654617275,-4.119840065461979,3.251245893571353e-11,1.784652501178158,-1.784652501175252,8.51241016519223e-10,0.10538241453239326,-0.10538241445631225,0,70,255.0,255.0,255.0
75,3.75,0.0,4.2092,-4.2092,8.230465221626563e-11,1.7896565095767252,-1.7896565095693688,1.1404467147028673e-09,0.0947779214103015,-0.0947779213083706,0,70,255.0,255.0,255.0
76,3.8000000000000003,5.091070021083648e-12,4.298796690381093,-4.298796690380639,1.1234372896491414e-10,1.7941189556768786,-1.7941189556668375,6.111635524306608e-11,0.08371992259583501,-0.08371992259037307,0,70,255.0,255.0,255.0
77,3.85,1.0334930930274923e-11,4.388602680568676,-4.388602680567752,8.841628774057272e-11,1.7980285018363087,-1.7980285018284061,-1.0182140042167256e-09,0.07266192378136863,-0.07266192387237565,0,70,255.0,255.0,255.0
78,3.9000000000000004,1.3033256828924408e-11,4.478590325565712,-4.478590325564547,1.0522328543241024e-11,1.8013851480550156,-1.801385148054075,-2.097544363676527e-09,0.06160392496690213,-0.061603925154378125,0,70,255.0,255.0,255.0
79,3.95,1.0487721818382571e-11,4.568731980375166,-4.568731980374229,-1.2133814862707969e-10,1.804188894332999,-1.804188894343844,-3.1768747231363185e-09,0.05054592615243574,-0.0505459264363807,0,70,255.0,255.0,255.0
80,4.0,0.0,4.659,-4.659,-3.071651437703897e-10,1.8064397406702593,-1.806439740697713,-4.256205082596109e-09,0.03948792733797468,-0.03948792771839038,0,70,255.0,255.0,255.0
81,4.05,-1.900013198357474e-11,4.749366995479511,-4.749366995481208,-4.1927250440880676e-10,1.8081530492466573,-1.8081530492841313,-2.2808934294058752e-10,0.029044415717948305,-0.029044415738336264,0,70,255.0,255.0,255.0
82,4.1000000000000005,-3.8570487324501234e-11,4.839806601998316,-4.839806602001764,-3.29974078064445e-10,1.8093441822420542,-1.8093441822715468,3.800026396715007e-09,0.018600904097921745,-0.01860090375828196,0,70,255.0,255.0,255.0
83,4.15,-4.8640776673639924e-11,4.930292710777366,-4.930292710781714,-3.926986473730773e-11,1.8100131396564494,-1.8100131396599592,7.828142136370529e-09,0.008157392477895369,-0.008157391778227843,0,70,255.0,255.0,255.0
84,4.2,-3.9140710681852413e-11,5.020799213037611,-5.020799213041109,4.5284013557260517e-10,1.8101599214898436,-1.8101599214493693,1.1856257876026051e-08,-0.0022861191421310115,0.0022861202018262736,0,70,255.0,255.0,255.0
85,4.25,0.0,5.1113,-5.1113,1.146355922865293e-09,1.8097845277422364,-1.8097845276397768,1.588437361568157e-08,-0.012729630762160937,0.012729632181883943,0,70,255.0,255.0,255.0
86,4.3,7.090945791321536e-11,5.201768927700864,-5.201768927694527,1.5647462886703126e-09,1.8088848473364925,-1.8088848471966377,8.512410165192761e-10,-0.023257585467594627,0.023257585543677767,0,70,255.0,255.0,255.0
87,4.3500000000000005,1.4394701836773e-10,5.292179711438063,-5.292179711425196,1.231480024517208e-09,1.8074587691954769,-1.807458769085409,-1.4181891582643282e-08,-0.03378554017302851,0.033785538905471785,0,70,255.0,255.0,255.0
88,4.4,1.8152984986563529e-10,5.382506031324826,-5.382506031308601,1.4655713040598996e-10,1.8055062933191897,-1.8055062933060906,-2.921502418180558e-08,-0.0443134948784622,0.04431349226726561,0,70,255.0,255.0,255.0
89,4.45,1.4607512090902709e-10,5.472721567474394,-5.472721567461337,-1.6900223936633393e-09,1.8030274197076308,-1.8030274198586824,-4.424815678096787e-08,-0.05484144958389589,0.05484144562905943,0,70,255.0,255.0,255.0
90,4.5,0.0,5.5628,-5.5628,-4.278258547690782e-09,1.8000221483608003,-1.8000221487431847,-5.928128938013018e-08,-0.06536940428933136,0.06536939899086036,0,70,255.0,255.0,255.0
91,4.55,-2.6463769966928665e-10,5.652714893717029,-5.652714893740681,-5.839712650272444e-09,1.7964835614073777,-1.7964835619293222,-3.1768747231365137e-09,-0.07617407384757367,0.07617407356363014,0,70,255.0,255.0,255.0
92,4.6000000000000005,-5.372175861464188e-10,5.74243935224944,-5.742439352297456,-4.595946020004387e-09,1.7924047409760429,-1.7924047413868216,5.2927539933858157e-08,-0.08697874340581618,0.08697874813640011,0,70,255.0,255.0,255.0
93,4.65,-6.774786227889011e-10,5.831946363923335,-5.831946363983888,-5.469586568866499e-10,1.787785687066796,-1.7877856871156823,1.0903195459085181e-07,-0.09778341296405849,0.09778342270916987,0,70,255.0,255.0,255.0
94,4.7,-5.451597729542559e-10,5.9212089170648206,-5.921208917113547,6.3072494390807584e-09,1.782626399679637,-1.7826263991159048,1.6513636924784549e-07,-0.1085880825223008,0.10858809728193965,0,70,255.0,255.0,255.0
95,4.75,0.0,6.0102,-6.0102,1.5966678267897837e-08,1.776926878814566,-1.7769268773874884,2.212407839048391e-07,-0.11939275208054667,0.11939277185471298,0,70,255.0,255.0,255.0
96,4.800000000000001,9.876413407639506e-10,6.09889309743102,-6.098893097342747,2.1794104312419473e-08,1.7707169070339985,-1.7707169050860745,1.1856257876023076e-08,-0.12900611914214521,0.1290061202018394,0,70,255.0,255.0,255.0
97,4.8500000000000005,2.004923326217945e-09,6.187263679564183,-6.187263679384985,1.7152304055500336e-08,1.7640262669003515,-1.7640262653673044,-1.9752826815278925e-07,-0.1386194862037436,0.13861946854896567,0,70,255.0,255.0,255.0
98,4.9,2.5283846412899695e-09,6.275287712981837,-6.275287712755854,2.0412774971406143e-09,1.7568549584136244,-1.7568549582311779,-4.069127941816016e-07,-0.14823285326534197,0.14823281689609197,0,70,255.0,255.0,255.0
99,4.95,2.0345639709079963e-09,6.362941164266327,-6.36294116408448,-2.353897536265967e-08,1.7492029815738173,-1.7492029836776954,-6.162973202104139e-07,-0.15784622032694035,0.15784616524321823,0,70,255.0,255.0,255.0
100,5.0,0.0,6.4502,-6.4502,-5.958845452390056e-08,1.7410703363809301,-1.741070341706856,-8.256818462392262e-07,-0.16745958738853695,0.16745951359034628,0,70,255.0,255.0,255.0
101,5.050000000000001,-3.685927663386511e-09,6.537039116558897,-6.53703911688834,-8.133670459940545e-08,1.7323928104566197,-1.7323928177263712,-4.424815678095667e-08,-0.17964144958387518,0.17964144562904333,0,70,255.0,255.0,255.0
102,5.1000000000000005,-7.48247571872536e-09,6.623429129493834,-6.623429130162607,-6.401327020199694e-08,1.7231061914225425,-1.7231061971439516,7.371855326772989e-07,-0.1918233117792132,0.19182337766774019,0,70,255.0,255.0,255.0
103,5.15,-9.436059942370975e-09,6.709339584149322,-6.709339584992701,-7.618151331675816e-09,1.7132104792786984,-1.7132104799595973,1.5186192221355547e-06,-0.2040051739745512,0.20400530970643702,0,70,255.0,255.0,255.0
104,5.2,-7.593096110677733e-09,6.7947400258698725,-6.794740026548531,8.784865201155797e-08,1.7027056740250874,-1.702705666173308,2.30005291159381e-06,-0.2161870361698892,0.21618724174513387,0,70,255.0,255.0,255.0
105,5.25,0.0,6.8796,-6.8796,2.2238713982770442e-07,1.6915917756617094,-1.691591755785084,3.0814866010520663e-06,-0.228368898365229,0.2283691737838236,0,70,255.0,255.0,255.0
106,5.300000000000001,1.3756069312782093e-08,6.963890436333398,-6.9638904351039015,3.0355271408520234e-07,1.679951851139521,-1.67995182400844,1.6513636924780417e-07,-0.2372280825222924,0.23722809728192806,0,70,255.0,255.0,255.0
107,5.3500000000000005,2.7924979548683492e-08,7.047587802460489,-7.047587799964597,2.3890077675248756e-07,1.66786896740948,-1.667868946056891,-2.7512138625564063e-06,-0.24608726667935565,0.24608702078003236,0,70,255.0,255.0,255.0
108,5.4,3.5215855128193936e-08,7.130669950420881,-7.130669947273341,2.843132782956262e-08,1.6553431244715857,-1.6553431219304369,-5.667564094360617e-06,-0.2549464508364189,0.25494594427813666,0,70,255.0,255.0,255.0
109,5.45,2.833782047180293e-08,7.213114732254183,-7.213114729721391,-3.2785563268357217e-07,1.6423743223258382,-1.6423743516290774,-8.583914326164828e-06,-0.26380563499348214,0.26380486777624096,0,70,255.0,255.0,255.0
110,5.5,0.0,7.2949,-7.2949,-8.299601047869171e-07,1.6289625609722376,-1.628962635152813,-1.150026455796904e-05,-0.2726648191505525,0.2726637912743435,0,70,255.0,255.0,255.0
111,5.550000000000001,-5.1338349587741863e-08,7.376002338107519,-7.376002342696062,-1.1328741517414038e-06,1.6150317849852993,-1.615031886239873,-6.162973202102581e-07,-0.284566220326972,0.28456616524325057,0,70,255.0,255.0,255.0
112,5.6000000000000005,-1.0421744247600863e-07,7.456393260664218,-7.4563932699790145,-8.915898368079532e-07,1.6005059389395402,-1.6005060186284878,1.0267669917548327e-05,-0.2964676215033913,0.2964685392121575,0,70,255.0,255.0,255.0
113,5.65,-1.3142736057040478e-07,7.5360430141671575,-7.536043025913937,-1.0610715998657438e-07,1.5853850228349602,-1.5853850323186574,2.1151637155306917e-05,-0.30836902267981053,0.3083709131810644,0,70,255.0,255.0,255.0
114,5.7,-1.0575818577653397e-07,7.6149218451133995,-7.614921854565905,1.2235738787227308e-06,1.569669036671559,-1.5696689273103817,3.20356043930655e-05,-0.32027042385622984,0.3202732871499713,0,70,255.0,255.0,255.0
115,5.75,0.0,7.693,-7.693,3.097453279319964e-06,1.5533579804493374,-1.55335770360366,4.291957163082409e-05,-0.33217182503265263,0.3321756611188835,0,70,255.0,255.0,255.0
116,5.800000000000001,1.9159732903818535e-07,7.770248211236536,-7.770248194111858,4.227943892880413e-06,1.5364810089192735,-1.5364806310320596,2.3000529115932333e-06,-0.34290703616988566,0.3429072417451271,0,70,255.0,255.0,255.0
117,5.8500000000000005,3.88944790355351e-07,7.846639154882647,-7.846639120119351,3.327458570479325e-06,1.5190672768323485,-1.5190669794291471,-3.8319465807636905e-05,-0.3536422473071185,0.3536388223713705,0,70,255.0,255.0,255.0
118,5.9,4.904935871534251e-07,7.922145992910489,-7.9221459490709165,3.9599731211673606e-07,1.501116784188562,-1.5011167487949229,-7.893898452686704e-05,-0.3643774584443514,0.3643704029976139,0,70,255.0,255.0,255.0
119,5.95,3.946949226343328e-07,7.996741887292222,-7.996741852014987,-4.56643988220735e-06,1.4826295309879136,-1.4826299391293858,-0.00011955850324609719,-0.3751126695815842,0.3751019836238573,0,70,255.0,255.0,255.0
120,6.0,0.0,8.0704,-8.0704,-1.1559853012492939e-05,1.4636055172304037,-1.4636065504325373,-0.0001601780219653273,-0.38584788071881704,0.38583356425009896,0,70,255.0,255.0,255.0
121,6.050000000000001,-7.150509665649996e-07,8.14309441694634,-8.143094480856512,-1.577890141978025e-05,1.4441001793375967,-1.4441015896318794,-8.583914326162656e-06,-0.39436563499345295,0.3943648677762071,0,70,255.0,255.0,255.0
122,6.1000000000000005,-1.4515617189453955e-06,8.214802919805198,-8.214803049543583,-1.2418244445109344e-05,1.4241689537310582,-1.4241700636549162,0.0001430101933129993,-0.4028833892680887,0.40289617130231514,0,70,255.0,255.0,255.0
123,6.15,-1.8305469880432955e-06,8.285504214190883,-8.285504377802399,-1.4778820884803694e-06,1.4038118404107878,-1.403811972501648,0.00029460430095216126,-0.4114011435427245,0.4114274748284232,0,70,255.0,255.0,255.0
124,6.2,-1.4730215047607976e-06,8.355177005717714,-8.355177137374143,1.704218565010668e-05,1.383028839376786,-1.383027316172074,0.0004461984085913233,-0.41991889781736025,0.41995877835453116,0,70,255.0,255.0,255.0
125,6.25,0.0,8.4238,-8.4238,4.314195877065179e-05,1.361819950629052,-1.361816094666195,0.0005977925162304852,-0.42843665209200665,0.4284900818806463,0,70,255.0,255.0,255.0
126,6.300000000000001,2.668606537221813e-06,8.491349320978102,-8.491349082462099,5.888766178624058e-05,1.3400302737303451,-1.3400250104404285,3.203560439305744e-05,-0.44315042385625625,0.4431532871499984,0,70,255.0,255.0,255.0
127,6.3500000000000005,5.417302085426231e-06,8.557790765896565,-8.55779028170632,4.634551920995806e-05,1.3175049082434263,-1.317500765951195,-0.0005337213074443601,-0.45786419562050557,0.4578164924193503,0,70,255.0,255.0,255.0
128,6.4,6.831694365019758e-06,8.623087550325975,-8.623086939719492,5.5155310418047315e-06,1.2942438541682948,-1.2942433611984936,-0.001099478219281778,-0.4725779673847549,0.4724796976887022,0,70,255.0,255.0,255.0
129,6.45,5.497391096408859e-06,8.687202889836923,-8.687202398488445,-6.360230271821934e-05,1.270247111504951,-1.270252796182325,-0.0016652351311191955,-0.4872917391490042,0.487142902958054,0,70,255.0,255.0,255.0
130,6.5,0.0,8.7501,-8.7501,-0.00016100798207011423,1.2455146802533943,-1.2455290709026885,-0.0022309920429566124,-0.5020055109132588,0.5018061082274059,0,70,255.0,255.0,255.0
131,6.550000000000001,-9.959375182322251e-06,8.811747499141251,-8.811748389295103,-0.00021977174572518208,1.2203707257410228,-1.2203903686064064,-0.00011955850324606642,-0.5037526695815903,0.5037419836238612,0,70,255.0,255.0,255.0
132,6.6000000000000005,-2.0217646622759524e-05,8.872135616608546,-8.872137423631143,-0.00017296383239472283,1.195139413295235,-1.195154872540302,0.0019918750364644423,-0.5054998282499217,0.5056778590203166,0,70,255.0,255.0,255.0
133,6.65,-2.5496230472035727e-05,8.931259984505218,-8.931262263319635,-2.0584242078738543e-05,1.1698207429160308,-1.1698225827043751,0.004103308576174951,-0.5072469869182531,0.5076137344167719,0,70,255.0,255.0,255.0
134,6.7,-2.0516542880874645e-05,8.989116234934592,-8.989118068672084,0.00023736702522277075,1.1444147146034098,-1.144393499098625,0.006214742115885459,-0.5089941455865844,0.5095496098132273,0,70,255.0,255.0,255.0
135,6.75,0.0,9.0457,-9.0457,0.0006008899695098051,1.1189213283573727,-1.1188676217230522,0.008326175655595965,-0.5107413042549176,0.5114854852096844,0,70,255.0,255.0,255.0
136,6.800000000000001,3.7168894192067194e-05,9.1009926824569,-9.100989360357499,0.0008201993211144876,1.0924868233055658,-1.092413515133947,0.00044619840859120956,-0.5466388978173432,0.5466787783545116,0,70,255.0,255.0,255.0
137,6.8500000000000005,7.545328440561187e-05,9.154918767669256,-9.154912023769109,0.0006455098103689333,1.064257438575638,-1.064199743887601,-0.007433778838413407,-0.5825364913797682,0.5818720714993383,0,70,255.0,255.0,255.0
138,6.9,9.515322752312317e-05,9.207388511653162,-9.20738000700197,7.682143727314968e-05,1.0342331741675892,-1.0342263079840133,-0.015313756085418021,-0.6184340849421932,0.617065364644165,0,70,255.0,255.0,255.0
139,6.95,7.656878042708968e-05,9.25831217042471,-9.258305326823221,-0.0008858657981728637,1.002414030081419,-1.0024932074231845,-0.02319373333242264,-0.6543316785046182,0.6522586577889915,0,70,255.0,255.0,255.0
140,7.0,0.0,9.3076,-9.3076,-0.002242551895969106,0.9688000063171275,-0.9690004422051145,-0.031073710579427226,-0.6902292720670458,0.6874519509338155,0,70,255.0,255.0,255.0
141,7.050000000000001,-0.0001555162015859472,9.355160171031157,-9.355174169274912,-0.004069025538732796,0.9332659810367245,-0.9336355708578167,-0.04198523513111933,-0.7311317391490537,0.7271429029580742,0,70,255.0,255.0,255.0
142,7.1000000000000005,-0.00041599549099969,9.400892512714439,-9.400930481292429,-0.006441075409081052,0.8956868324022217,-0.8962861519093067,-0.052896759682811254,-0.772034206231061,0.766833854982332,0,70,255.0,255.0,255.0
143,7.15,-0.0008087166796204601,9.444694768882142,-9.444769708672489,-0.009358701507013902,0.8560625604136187,-0.8569521853595838,-0.06380828423450316,-0.8129366733130682,0.8065248070065899,0,70,255.0,255.0,255.0
144,7.2,-0.0013609585788274866,9.486464683366567,-9.486592624035033,-0.012821903832531345,0.8143931650709153,-0.815633671208648,-0.07471980878619508,-0.8538391403950754,0.8462157590308479,0,70,255.0,255.0,255.0
145,7.25,-0.0021,9.5261,-9.5263,-0.016830682385633382,0.7706786463741113,-0.7723306094564993,-0.08563133333788694,-0.8947416074770871,0.8859067110551075,0,70,255.0,255.0,255.0
146,7.300000000000001,-0.0030415040878483037,9.56353143341848,-9.563824362542858,-0.02068809716618347,0.7268972525475196,-0.7289482014347897,-0.0686652578841143,-0.8565141455865588,0.8493896098132563,0,70,255.0,255.0,255.0
147,7.3500000000000005,-0.004154671320406878,9.598821581472993,-9.599225251061181,-0.023697208174044866,0.685027231815455,-0.6873916484751732,-0.05169918243034197,-0.8182866836960311,0.8128725085714057,0,70,255.0,255.0,255.0
148,7.4,-0.005397086509041305,9.632066012818267,-9.632593958308078,-0.025858015409217647,0.6450685841779168,-0.6476609505776494,-0.034733106976569623,-0.7800592218055035,0.7763554073295551,0,70,255.0,255.0,255.0
149,7.45,-0.006726334465117156,9.663360296109026,-9.664021777036648,-0.027170518871701813,0.6070213096349049,-0.609756107742218,-0.01776703152279728,-0.7418317599149757,0.7398383060877045,0,70,255.0,255.0,255.0
150,7.5,-0.0081,9.6928,-9.6936,-0.02763471856149737,0.5708854081864193,-0.5736771199688792,-0.000800956069024833,-0.7036042980244481,0.7033212048458557,0,70,255.0,255.0,255.0
151,7.550000000000001,-0.009478467447020918,9.720473295294925,-9.72141238055366,-0.027418585796533546,0.536217008773193,-0.5389716234030085,0.00944626666757756,-0.6831316785045849,0.684898657788948,0,70,255.0,255.0,255.0
152,7.6000000000000005,-0.010833319227372866,9.746438761393584,-9.747512514462848,-0.02669009189473962,0.5025722403359605,-0.505187254189984,0.019693489404179768,-0.662659058984722,0.6664761107320405,0,70,255.0,255.0,255.0
153,7.65,-0.01213893728421437,9.770747579844787,-9.771946458095206,-0.025449236856115578,0.469951102874721,-0.47232401232980475,0.029940712140781978,-0.6421864394648591,0.6480535636751331,0,70,255.0,255.0,255.0
154,7.7,-0.013369703560703916,9.793450932197324,-9.794760267818377,-0.023696020680661428,0.43835359638947474,-0.4403818978224709,0.04018793487738419,-0.6217138199449962,0.6296310166182256,0,70,255.0,255.0,255.0
155,7.75,-0.0145,9.8146,-9.816,-0.021430443368377173,0.40777972088022163,-0.40936091066798236,0.05043515761398637,-0.6012412004251342,0.6112084695613205,0,70,255.0,255.0,255.0
156,7.800000000000001,-0.015503026124068134,9.834247385401826,-9.835714115242501,-0.018581559647682346,0.3783147123597143,-0.3794053049531771,0.06352019121380516,-0.5773591403951421,0.5870157590308727,0,70,255.0,255.0,255.0
157,7.8500000000000005,-0.016347251770101733,9.852451372952663,-9.853960691087428,-0.015078424246996635,0.35004380684070713,-0.3506593347648948,0.07660522481362371,-0.5534770803651505,0.5628230485004252,0,70,255.0,255.0,255.0
158,7.9,-0.016999964354101275,9.86927166780259,-9.870800209311101,-0.010921037166320001,0.32296700432319947,-0.32312300010313477,0.08969025841344228,-0.5295950203351589,0.5386303379699778,0,70,255.0,255.0,255.0
159,7.95,-0.017428451292067215,9.884767975101674,-9.886293151689848,-0.006109398405652441,0.2970843048071914,-0.29679630096789716,0.10277529201326083,-0.5057129603051673,0.5144376274395304,0,70,255.0,255.0,255.0
160,8.0,-0.0176,9.899,-9.9005,-0.0006435079649939557,0.2723957082926829,-0.2716792373591819,0.11586032561307935,-0.4818309002751757,0.490244916909083,0,70,255.0,255.0,255.0
161,8.05,-0.01748302805670663,9.912027563097773,-9.913479958476332,0.005408824387263186,0.2489081417879301,-0.24769515678426232,0.1262329684772029,-0.457671759914922,0.4691183060876875,0,70,255.0,255.0,255.0
162,8.1,-0.01705047369222026,9.92391094679576,-9.925287121187443,0.01197978888272627,0.2266285323011908,-0.22476740675041332,0.1366056113413261,-0.4335126195546691,0.4479916952662928,0,70,255.0,255.0,255.0
163,8.15,-0.016276405299380556,9.93471054894486,-9.93597430466039,0.019069385521395765,0.20555687983246343,-0.20289598725763322,0.14697825420544963,-0.4093534791944153,0.42686508444489735,0,70,255.0,255.0,255.0
164,8.200000000000001,-0.015134891271027217,9.944486767395972,-9.945594325422224,0.026677614303271445,0.1856931843817487,-0.18208089830592297,0.1573508970695732,-0.38519433883416154,0.40573847362350185,0,70,255.0,255.0,255.0
165,8.25,-0.0136,9.9533,-9.9542,0.03480447522835301,0.16703744594904735,-0.16232213989528319,0.16772353993369654,-0.3610351984739095,0.38461186280210713,0,70,255.0,255.0,255.0
166,8.3,-0.011644861649105328,9.961210362207082,-9.961845250852171,0.04350626209863016,0.1495727204885741,-0.14368606790977512,0.18034793487738432,-0.3375538199450109,0.36083101661820516,0,70,255.0,255.0,255.0
167,8.35,-0.009238853461017275,9.968276839864298,-9.968588424162798,0.052839268716091355,0.13328206395454634,-0.12623903823346275,0.19297232982107163,-0.31407244141611307,0.33705017043430396,0,70,255.0,255.0,255.0
168,8.4,-0.006350414448376455,9.974558136417977,-9.97448897204734,0.06280349508073728,0.11816547634696294,-0.10998105086634488,0.2055967247647594,-0.2905910628872144,0.313269324250402,0,70,255.0,255.0,255.0
169,8.450000000000001,-0.0029479836238237196,9.980112955314436,-9.979606346621253,0.0733989411925676,0.10422295766582448,-0.09491210580842212,0.21822111970844715,-0.2671096843583158,0.28948847806649997,0,70,255.0,255.0,255.0
170,8.5,0.001,9.985,-9.984,0.08462560705158188,0.09145450791113144,-0.08103220305969494,0.23084551465213432,-0.24362830582941775,0.26570763188259927,0,70,255.0,255.0,255.0
171,8.55,0.005524874653128133,9.989277388073905,-9.987727838114983,0.09647012721821693,0.0798249762577663,-0.06824857157664035,0.24293529201326083,-0.2215529603051812,0.24563762743957704,0,70,255.0,255.0,255.0
172,8.6,0.010657087536289243,9.993000893747046,-9.990841582161366,0.10891913625290786,0.06929921188061336,-0.056468440315737285,0.2550250693743869,-0.19947761478094544,0.22556762299655553,0,70,255.0,255.0,255.0
173,8.65,0.016426863092886507,9.996225705383237,-9.99339140715026,0.12197263415565555,0.05987721477967187,-0.045691809276984914,0.2671148467355134,-0.17740226925670893,0.20549761855353332,0,70,255.0,255.0,255.0
174,8.700000000000001,0.022864425766322576,9.999007011346283,-9.995427488092767,0.13563062092645956,0.05155898495494221,-0.035918678460383664,0.27920462409663993,-0.15532692373247237,0.1854276141105111,0,70,255.0,255.0,255.0
175,8.75,0.03,10.0014,-9.997,0.14989309656531943,0.04434452240642464,-0.02714904786593383,0.29129440145776564,-0.13325157820823663,0.16535760966748972,0,70,255.0,255.0,255.0
176,8.8,0.037862963036593214,10.0034624854973,-9.998161796687898,0.1647092290285031,0.03839137448036531,-0.019543645783659584,0.3013508970695732,-0.10487433883413323,0.13885847362347573,0,70,255.0,255.0,255.0
177,8.85,0.04647930331586006,10.005262785147517,-9.998976447191735,0.18002818627227662,0.03385708852301131,-0.01326320050358626,0.31140739268138035,-0.07649709946003086,0.11235933757946265,0,70,255.0,255.0,255.0
178,8.9,0.05587416207683068,10.006871842049081,-9.999510199351626,0.19584996829664106,0.0307416645343623,-0.008307712025713409,0.3214638882931879,-0.04811986008592746,0.08586020153544865,0,70,255.0,255.0,255.0
179,8.950000000000001,0.06607268055853428,10.00836059930043,-9.999829301007678,0.21217457510159587,0.02904510251441849,-0.004677180350041275,0.33152038390499544,-0.01974262071182406,0.05936106549143465,0,70,255.0,255.0,255.0
180,9.0,0.0771,10.0098,-10.0,0.22900200668714046,0.028767402463179857,-0.0023716054765699187,0.34157687951680216,0.00863461866227841,0.0328619294474216,0,70,255.0,255.0,255.0
181,9.05,0.08897687320049973,10.011251869936896,-10.000080975133427,0.2460689566677719,0.02936152582077783,-0.000936845288721755,0.3411011197084464,0.015130315641640177,0.024528478066504128,0,70,255.0,255.0,255.0
182,9.1,0.10170649920027011,10.012741565662894,-10.000100629071689,0.26311211865798495,0.030280434027343858,8.12423300805004e-05,0.3406253599000907,0.021626012621001715,0.01619502668558696,0,70,255.0,255.0,255.0
183,9.15,0.1152876885997912,10.014285326420447,-10.000079795443238,0.28013149265778087,0.031524127082878,0.0006826573798369199,0.3401496000917349,0.028121709600363483,0.00786157530466949,0,70,255.0,255.0,255.0
184,9.200000000000001,0.12971925199954165,10.015899391451999,-10.000039307876524,0.297127078667159,0.033092604987380245,0.0008673998605474606,0.33967384028337916,0.03461740657972525,-0.00047187607624797623,0,70,255.0,255.0,255.0
185,9.25,0.145,10.0176,-10.0,0.31409887668611863,0.0349858677408505,0.0006354697722121376,0.3391980804750241,0.04111310355908676,-0.008805327457165148,0,70,255.0,255.0,255.0
186,9.3,0.16112794416140894,10.01939803475512,-9.999978302778391,0.3309989443004105,0.03688252223651674,0.0002510269385458962,0.33680462409664064,0.03475307626756153,-0.006572385889484288,0,70,255.0,255.0,255.0
187,9.35,0.1780978998830589,10.02128295220091,-9.999973036521505,0.34777933909578257,0.038461175367606654,-2.1768816736292772e-05,0.33441116771825724,0.028393048976036526,-0.004339444321803507,0,70,255.0,255.0,255.0
188,9.4,0.19590388352400512,10.023238852269136,-9.999978618875424,0.3644400610722361,0.03972182713412037,-0.00018291749363444896,0.33201771133987373,0.022033021684511298,-0.0021065027541226477,0,70,255.0,255.0,255.0
189,9.450000000000001,0.21453991144330106,10.025249834891577,-9.99998946748623,0.3809811102297704,0.040664477536057814,-0.00023241909214856047,0.3296242549614903,0.01567299439298607,0.00012643881355821167,0,70,255.0,255.0,255.0
190,9.5,0.234,10.0273,-10.0,0.397402486568385,0.04128912657341898,-0.00017027361227863177,0.327230798583106,0.009312967101460734,0.002359380381238992,0,70,255.0,255.0,255.0
191,9.55,0.2542793501538659,10.029375991042627,-10.000005813753008,0.41377526613058774,0.04174838523315992,-6.726246546182998e-05,0.32768038390499443,0.009057379288176345,0.0017610654914330206,0,70,255.0,255.0,255.0
192,9.600000000000001,0.2753779012674943,10.031474625533471,-10.000007224842287,0.4301705249588849,0.042194864502236626,5.83293686467281e-06,0.32812996922688287,0.008801791474891955,0.0011627506016270493,0,70,255.0,255.0,255.0
193,9.65,0.2972967773041891,10.033595264503006,-10.000005729055063,0.4465882630532759,0.0426285643806491,4.9012594700875565e-05,0.3285795545487713,0.008546203661607575,0.0005644357118210991,0,70,255.0,255.0,255.0
194,9.700000000000001,0.3200371022272566,10.035737268981693,-10.00000282217856,0.46302848041376193,0.04304948486839738,6.227650804678148e-05,0.32902913987065974,0.008290615848323185,-3.387917798487218e-05,0,70,255.0,255.0,255.0
195,9.75,0.3436,10.0379,-10.0,0.4794911770403418,0.04345762596548142,4.562467690238948e-05,0.32947872519254817,0.008035028035038527,-0.0006321940677908224,0,70,255.0,255.0,255.0
196,9.8,0.3679858552231294,10.04008120107438,-9.999998442209575,0.4959319911772402,0.04375593683084974,1.802292330142363e-05,0.3281538402833786,0.0038974065796942925,-0.0004718760762477962,0,70,255.0,255.0,255.0
197,9.850000000000001,0.3931920950469671,10.042272145665205,-9.999998064109343,0.5123065610686801,0.04384736662345085,-1.5629307223908025e-06,0.32682895537420903,-0.0002402148756499422,-0.00031155808470477,0,70,255.0,255.0,255.0
198,9.9,0.41921540725923945,10.044462489718843,-9.999998464904321,0.528614886714661,0.04373191534328475,-1.3132885169053543e-05,0.3255040704650395,-0.00437783633099403,-0.0001512400931617495,0,70,255.0,255.0,255.0
199,9.950000000000001,0.4460524796476754,10.046641889181656,-9.999999243799534,0.5448569681151839,0.04340958299035144,-1.6686940038565417e-05,0.32417918555586994,-0.008515457786338266,9.077898381276727e-06,0,70,255.0,255.0,255.0
200,10.0,0.4737,10.0488,-10.0,0.5610328052702479,0.04288036956465093,-1.222509533092616e-05,0.3228543006466955,-0.012653079241682519,0.0001693958899242973,0,70,255.0,255.0,255.0
201,10.05,0.5021548289536191,10.05092720465986,-10.000000417408685,0.5771527691604527,0.04218786744343359,-4.829227743864525e-06,0.32194425496148804,-0.015047005607010555,0.00012643881355816388,0,70,255.0,255.0,255.0
202,10.100000000000001,0.5314145185446418,10.053016791805705,-10.000000518720338,0.5932272307663972,0.04137566900394985,4.1878602489040636e-07,0.32103420927628057,-0.01744093197233859,8.348173719203044e-05,0,70,255.0,255.0,255.0
203,10.15,0.5614767936588542,10.055062776621618,-10.000000411327647,0.6092561900880806,0.04044377424619975,3.5189459753385666e-06,0.32012416359107315,-0.019834858337666544,4.052466082589851e-05,0,70,255.0,255.0,255.0
204,10.200000000000001,0.5923393791820453,10.057059174291687,-10.000000202623303,0.6252396471255044,0.0393921831701832,4.471252107480171e-06,0.3192141179058657,-0.02222878470299458,-2.4324155402349185e-06,0,70,255.0,255.0,255.0
205,10.25,0.624,10.059,-10.0,0.641177601878667,0.0382208957759003,3.2757044213151527e-06,0.3183040722206538,-0.024622711068322645,-4.538949190636682e-05,0,70,255.0,255.0,255.0
206,10.3,0.6564564289623971,10.060879580286175,-9.999999888155678,0.6570729321809501,0.036948593395401456,1.2939876740344715e-06,0.3175091398706602,-0.026269384151630548,-3.38791779848593e-05,0,70,255.0,255.0,255.0
207,10.350000000000001,0.689706630774471,10.06269348711197,-9.999999861009305,0.6729285158657335,0.035593957360737206,-1.1221337717082547e-07,0.3167142075206666,-0.027916057234938455,-2.2368864063351776e-05,0,70,255.0,255.0,255.0
208,10.4,0.7237486181053453,10.06443760379468,-9.999999889785089,0.6887443529330166,0.03415698767190762,-9.428987323007187e-07,0.315919275170673,-0.0295627303182463,-1.085855014184466e-05,0,70,255.0,255.0,255.0
209,10.450000000000001,0.7585804036241474,10.066107813651593,-9.99999994570725,0.7045204433828006,0.032637684328912585,-1.1980683913552674e-06,0.31512434282067936,-0.031209403401554203,6.517637796628586e-07,0,70,255.0,255.0,255.0
210,10.5,0.7942,10.0677,-10.0,0.7202567872150843,0.03103604733175222,-8.777223543344534e-07,0.31432941047067775,-0.03285607648486205,1.216207770116997e-05,0,70,255.0,255.0,255.0
211,10.55,0.8306066551967952,10.069208874195441,-10.000000029968596,0.7360275021157481,0.029281758974971303,-3.467229522733636e-07,0.31649918555586526,-0.037315457786373546,9.07789838127332e-06,0,70,255.0,255.0,255.0
212,10.600000000000001,0.8678045583574803,10.070624459746412,-10.000000037242446,0.7519067057706713,0.02730450155311481,3.006748379289143e-08,0.3186689606410527,-0.04177483908788505,5.993719061376671e-06,0,70,255.0,255.0,255.0
213,10.65,0.9057991339197664,10.071935608199666,-10.000000029531996,0.7678943981798534,0.025104275066182825,2.5264895386430696e-07,0.3208387357262401,-0.04623422038939638,2.909539741480131e-06,0,70,255.0,255.0,255.0
214,10.700000000000001,0.9445958063213696,10.073131171101947,-10.000000014547698,0.7839905793432952,0.02268107951417518,3.2102145794089795e-07,0.3230085108114276,-0.05069360169090788,-1.7463957841651764e-07,0,70,255.0,255.0,255.0
215,10.75,0.9842,10.0742,-10.0,0.8001952492609959,0.02003491489709206,2.3518499602266052e-07,0.32517828589661146,-0.05515298299241922,-3.258818898313059e-06,0,70,255.0,255.0,255.0
216,10.8,1.0246209502504249,10.075131322932068,-9.99999999196994,0.8167370593560581,0.017188370704706243,9.290413505898249e-08,0.3364941179058661,-0.058708784703011926,-2.4324155402339825e-06,0,70,255.0,255.0,255.0
217,10.850000000000001,1.0658831357956147,10.075915873902378,-9.999999990020918,0.833844661051583,0.014164036426790785,-8.056558000741143e-09,0.34780994991512076,-0.062264586413604626,-1.6060121821549057e-06,0,70,255.0,255.0,255.0
218,10.9,1.1080148462155908,10.076544763406654,-9.999999992086925,0.8515180543475701,0.010961912063345807,-6.769708315650901e-08,0.359125781924375,-0.0658203881241972,-7.796088240758585e-07,0,70,255.0,255.0,255.0
219,10.950000000000001,1.1510443710903788,10.07700910194062,-9.999999996101955,0.8697572392440204,0.007581997614371081,-8.601744040832531e-08,0.3704416139336296,-0.06937618983478991,4.6794534003218295e-08,0,70,255.0,255.0,255.0
220,11.0,1.195,10.0773,-10.0,0.8885622157409329,0.004024293079866849,-6.301762975618868e-08,0.38175744594288386,-0.07293199154538249,8.73197892082265e-07,0,70,255.0,255.0,255.0
221,11.05,1.2399015438015084,10.077407434076287,-10.00000000215165,0.9074242604600221,0.0002207582061944684,-2.48935879625663e-08,0.37272434282067624,-0.07920940340151057,6.517637796626086e-07,0,70,255.0,255.0,255.0
222,11.100000000000001,1.2857348984600683,10.077316844644072,-10.000000002673886,0.925834650023001,-0.0038966472602843215,2.1587482100731e-09,0.36369123969846867,-0.08548681525763867,4.3032966724295216e-07,0,70,255.0,255.0,255.0
223,11.15,1.332477481217873,10.077012538173713,-10.000000002120302,0.9437933844298688,-0.008327923319569358,1.8139378761729168e-08,0.3546581365762614,-0.09176422711376653,2.0889555482330352e-07,0,70,255.0,255.0,255.0
224,11.200000000000001,1.3801067093171198,10.076478821135568,-10.000000001044478,0.9613004636806269,-0.013073069971660953,2.3048303692403003e-08,0.3456250334540538,-0.09804163896989462,-1.2538557596352896e-08,0,70,255.0,255.0,255.0
225,11.25,1.4286,10.0757,-10.0,0.9783558877752742,-0.018132087216558773,1.6885523002094243e-08,0.33659193033184653,-0.10431905082602247,-2.3397267001600148e-07,0,70,255.0,255.0,255.0
226,11.3,1.4779376745435457,10.074661340762779,-9.99999999942347,0.995133898803856,-0.02344740352948216,6.670216791282759e-09,0.3345285108114206,-0.10829360169091001,-1.746395784164521e-07,0,70,255.0,255.0,255.0
227,11.350000000000001,1.52811167036412,10.073351947521331,-9.999999999283535,1.0118087388564168,-0.02896144738564993,-5.784348395512149e-10,0.3324650912909946,-0.11226815255579757,-1.1530648681690274e-07,0,70,255.0,255.0,255.0
228,11.4,1.57911682891292,10.071761883898493,-9.999999999431866,1.0283804079329555,-0.03467421878506187,-4.860431890407584e-09,0.33040167177056873,-0.11624270342068498,-5.597339521735548e-08,0,70,255.0,255.0,255.0
229,11.450000000000001,1.6309479916411485,10.069881213517103,-9.999999999720133,1.0448489060334734,-0.040585717727718386,-6.175774361286643e-09,0.3283382522501428,-0.12021725428557253,3.3596963821938727e-09,0,70,255.0,255.0,255.0
230,11.5,1.6836,10.0677,-10.0,1.0612142331579697,-0.04669594421361908,-4.5244622521882995e-09,0.3262748327297178,-0.12419180515045986,6.269278798174116e-08,0,70,255.0,255.0,255.0
231,11.55,1.7370661580243127,10.065208002872597,-10.00000000015448,1.0773841443245535,-0.053023144088251206,-1.7872792025647295e-09,0.3205216139336346,-0.12889618983482165,4.679453400320007e-08,0,70,255.0,255.0,255.0
232,11.600000000000001,1.7913336200834602,10.062393765270604,-10.000000000191976,1.0932663945513337,-0.05958556319710143,1.549911481317748e-10,0.31476839513755145,-0.13360057451918347,3.0896280024658986e-08,0,70,255.0,255.0,255.0
233,11.65,1.8463880031304494,10.059245526232315,-10.000000000152232,1.1088609838383088,-0.0663832015401695,1.3023487999011864e-09,0.30901517634146847,-0.1383049592035451,1.4998026046118464e-08,0,70,255.0,255.0,255.0
234,11.700000000000001,1.902214924118294,10.055751524796019,-10.00000000007499,1.1241679121854804,-0.0734160591174559,1.6547937527435887e-09,0.30326195754538526,-0.14300934388790693,-9.002279324226209e-10,0,70,255.0,255.0,255.0
235,11.75,1.9588,10.0519,-10.0,1.1391871795928472,-0.08068413592896012,1.2123260066589535e-09,0.29750873874929873,-0.14771372857226872,-1.679848191096314e-08,0,70,255.0,255.0,255.0
236,11.8,2.016129693359207,10.04767944774684,-9.999999999958607,1.153969523897931,-0.08817202011751459,4.789000189761603e-10,0.29378503345404955,-0.15180163896990578,-1.2538557596348172e-08,0,70,255.0,255.0,255.0
237,11.850000000000001,2.0741938493020484,10.043079391396251,-9.99999999994856,1.1685656829382527,-0.09586429982595092,-4.15297529758816e-11,0.2900613281588003,-0.15588954936754285,-8.278633281733205e-09,0,70,255.0,255.0,255.0
238,11.9,2.1329831585652856,10.038089611172245,-9.99999999995921,1.1829756567138112,-0.10376097505426882,-3.489633091971648e-10,0.28633762286355124,-0.15997745976517977,-4.018708967118389e-09,0,70,255.0,255.0,255.0
239,11.950000000000001,2.1924883118856835,10.032699887298826,-9.999999999979906,1.1971994452246075,-0.11186204580246883,-4.4340064968771155e-10,0.28261391756830206,-0.16406537016281683,2.412153474965779e-10,0,70,255.0,255.0,255.0
240,12.0,2.2527,10.0269,-10.0,1.211237048470641,-0.12016751207055044,-3.2484177444751447e-10,0.2788902122730512,-0.1681532805604541,4.501139662111396e-09,0,70,255.0,255.0,255.0
241,12.05,2.3136086685388646,10.020679006140051,-10.000000000011092,1.225073760083721,-0.1287207754416998,-1.283208733399115e-10,0.27457825225014637,-0.17397725428551547,3.3596963821926113e-09,0,70,255.0,255.0,255.0
242,12.100000000000001,2.375203782708355,10.014023069144391,-10.000000000013783,1.238694873695656,-0.13756523749910224,1.1127863771751413e-11,0.2702662922272416,-0.17980122801057685,2.218253102273827e-09,0,70,255.0,255.0,255.0
243,12.15,2.437474562608411,10.006917629078705,-10.000000000010928,1.252100389306445,-0.14670089824275742,9.35044368874724e-11,0.2659543322043369,-0.185625201735638,1.076809822355083e-09,0,70,255.0,255.0,255.0
244,12.200000000000001,2.5004102283389797,9.999348126008679,-10.000000000005384,1.2652903069160897,-0.15612775767266598,1.1880884600725742e-10,0.26164237218143205,-0.1914491754606994,-6.463345756370134e-11,0,70,255.0,255.0,255.0
245,12.25,2.564,9.9913,-10.0,1.2782646265245885,-0.1658458157888273,8.704109113110441e-11,0.2573304121585256,-0.19727314918576067,-1.2060767374824452e-09,0,70,255.0,255.0,255.0
246,12.3,2.62823323248534,9.982759727692951,-9.999999999997028,1.2910314357671864,-0.17579287811567001,3.438347438348566e-11,0.25334195754538374,-0.2006093438879431,-9.00227932422275e-10,0,70,255.0,255.0,255.0
247,12.350000000000001,2.693099819864543,9.973717932026181,-9.999999999996307,1.3035988222791273,-0.1859067501776219,-2.9817021111243604e-12,0.24935350293224184,-0.2039455385901255,-5.943791273621047e-10,0,70,255.0,255.0,255.0
248,12.4,2.7585897910010746,9.964166272512937,-9.99999999999707,1.3159667860604105,-0.1961874319746825,-2.5054438352725138e-11,0.24536504831910014,-0.20728173329230784,-2.8853032230194533e-10,0,70,255.0,255.0,255.0
249,12.450000000000001,2.8246931747584054,9.954096408666462,-9.999999999998558,1.3281353271110372,-0.20663492350685259,-3.183473434131823e-11,0.24137659370595826,-0.21061792799449028,1.7318482758225015e-11,0,70,255.0,255.0,255.0
250,12.5,2.8914,9.9435,-10.0,1.3401044454310063,-0.21724922477413147,-2.3322590076903184e-11,0.23738813909280587,-0.21395412269667413,3.2316728781838435e-10,0,70,255.0,255.0,255.0
251,12.55,2.958700001519782,9.932367683088145,-10.000000000000796,1.351856496847534,-0.22809171209561996,-9.21302419403118e-12,0.23269391756829336,-0.21974537016285825,2.4121534749648787e-10,0,70,255.0,255.0,255.0
252,12.600000000000001,3.0265817378334847,9.920686002750882,-10.00000000000099,1.363373837187836,-0.2392237617904176,7.989446727459414e-13,0.22799969604378084,-0.2255366176290424,1.5926340717459137e-10,0,70,255.0,255.0,255.0
253,12.65,3.0950334733872946,9.908440480869547,-10.000000000000783,1.3746564664519119,-0.2506453738585241,6.713316523428046e-12,0.22330547451926852,-0.23132786509522632,7.731146685269781e-11,0,70,255.0,255.0,255.0
254,12.700000000000001,3.164043472627405,9.895616639325475,-10.000000000000385,1.3857043846397625,-0.26235654829994015,8.530091358015553e-12,0.218611252994756,-0.23711911256141044,-4.640473469198665e-12,0,70,255.0,255.0,255.0
255,12.75,3.2336,9.8822,-10.0,1.3965175917513872,-0.27435728511466506,6.249269176508324e-12,0.21391703147023122,-0.24291036002759459,-8.659241379109229e-11,0,70,255.0,255.0,255.0
256,12.8,3.303691561435538,9.868176739954468,-9.999999999999787,1.4071105768426788,-0.28660827350187107,2.468622392639049e-12,0.2098023721814321,-0.24712917546063753,-6.463345756367655e-11,0,70,255.0,255.0,255.0
257,12.850000000000001,3.3743076288015295,9.853535656970285,-9.999999999999735,1.4174978289695308,-0.29907020266072915,-2.1407657985942425e-13,0.205687712892633,-0.2513479908936805,-4.2674501336260836e-11,0,70,255.0,255.0,255.0
258,12.9,3.44543791544975,9.838266204008866,-9.999999999999789,1.4276793481319423,-0.31174307259123896,-1.7988277409870585e-12,0.201573053603834,-0.25556680632672324,-2.0715545108845893e-11,0,70,255.0,255.0,255.0
259,12.950000000000001,3.5170721347319818,9.822357834031632,-9.999999999999895,1.437655134329914,-0.3246268832934014,-2.285631090743966e-12,0.1974583943150349,-0.25978562175976616,1.243411118569838e-12,0,70,255.0,255.0,255.0
260,13.0,3.5892,9.8058,-10.0,1.4474251875634456,-0.33772163476721556,-1.6744866291301127e-12,0.19334373502623592,-0.2640044371928103,2.3202367345984794e-11,0,70,255.0,255.0,255.0
261,13.05,3.6618113527380727,9.78858215709398,-10.000000000000057,1.4569971957817505,-0.35102719389689835,-6.61465376525019e-13,0.18953659370595796,-0.2682179279944934,1.7318482758218375e-11,0,70,255.0,255.0,255.0
262,13.100000000000001,3.7348965469604103,9.770693769367973,-10.000000000000071,1.4663788469340417,-0.3645434275666653,5.736164669174962e-14,0.18572945238568,-0.27243141879617655,1.1434598170451958e-11,0,70,255.0,255.0,255.0
263,13.15,3.8084460648137095,9.752124303094979,-10.000000000000055,1.4755701410203186,-0.3782703357765159,4.81994440520183e-13,0.18192231106540216,-0.2766449095978595,5.550713582685751e-12,0,70,255.0,255.0,255.0
264,13.200000000000001,3.8824503884446746,9.73286322454799,-10.000000000000028,1.4845710780405819,-0.3922079185264511,6.124330049603123e-13,0.1781151697451242,-0.2808584003995426,-3.331710050806682e-13,0,70,255.0,255.0,255.0
265,13.25,3.9569,9.7129,-10.0,1.493381657994831,-0.4063561758164701,4.4867734001212656e-13,0.17430802842484994,-0.285071891201226,-6.217055592846876e-12,0,70,255.0,255.0,255.0
266,13.3,4.031784627612177,9.692223431669607,-9.999999999999984,1.501956640030321,-0.42075495091053644,1.7723911346102744e-13,0.16869125299474838,-0.2908791125614214,-4.640473469196935e-12,0,70,255.0,255.0,255.0
267,13.350000000000001,4.1070909833568425,9.670819665557811,-9.99999999999998,1.510250783294306,-0.4354440870726127,-1.537000690757354e-14,0.1630744775646468,-0.2966863339216168,-3.063891345546995e-12,0,70,255.0,255.0,255.0
268,13.4,4.182805025295416,9.648674183611213,-9.999999999999984,1.5182640877867855,-0.450423584302698,-1.291500210936738e-13,0.15745770213454544,-0.302493555281812,-1.4873092218971102e-12,0,70,255.0,255.0,255.0
269,13.450000000000001,4.258912711489329,9.62577246777641,-9.999999999999991,1.5259965535077604,-0.46569344260079376,-1.6410092909728135e-13,0.15184092670444388,-0.3083007766420074,8.92729017528306e-14,0,70,255.0,255.0,255.0
270,13.5,4.3354,9.6021,-10.0,1.5334481804572302,-0.48125366196689867,-1.2022273091839357e-13,0.14622415127434074,-0.3141079980022008,1.6658550254027153e-12,0,70,255.0,255.0,255.0
271,13.55,4.412254136813223,9.577643316227586,-10.000000000000004,1.5406962440969647,-0.4970410024609481,-4.7491077319090434e-14,0.1436983943150384,-0.3173856217597683,1.2434111185693692e-12,0,70,255.0,255.0,255.0
272,13.600000000000001,4.489467519612233,9.552393168400773,-10.000000000000005,1.5478180198887344,-0.5129922241428759,4.118380938545104e-15,0.141172637355736,-0.3206632455173358,8.209672117360232e-13,0,70,255.0,255.0,255.0
273,13.65,4.56703383400463,9.526341362460167,-10.000000000000004,1.5548135078325382,-0.5291073270126816,3.4605643854512345e-14,0.13864688039643375,-0.3239408692749033,3.985233049026921e-13,0,70,255.0,255.0,255.0
274,13.700000000000001,4.644946765598019,9.499479704346374,-10.000000000000002,1.5616827079283775,-0.5453863110703662,4.3970711428813447e-14,0.13612112343713137,-0.3272184930324708,-2.3920601930653995e-14,0,70,255.0,255.0,255.0
275,13.75,4.7232,9.4718,-10.0,1.5684256201762512,-0.5618291763159285,3.221358366144773e-14,0.13359536647782733,-0.33049611679003466,-4.4636450876398505e-13,0,70,255.0,255.0,255.0
276,13.8,4.801786025134939,9.443292903420044,-9.999999999999998,1.5749703835818252,-0.5785050392456684,1.2725195815334285e-14,0.12819516974512332,-0.33653840039954863,-3.331710050805415e-13,0,70,255.0,255.0,255.0
277,13.850000000000001,4.880692538194241,9.413944460839092,-9.999999999999998,1.5812451371507639,-0.5954830163558839,-1.103516846606897e-15,0.1227949730124193,-0.3425806840090626,-2.1997750139709797e-13,0,70,255.0,255.0,255.0
278,13.9,4.959906038686071,9.383739566548115,-9.999999999999998,1.5872498808830668,-0.6127631076465745,-9.272554324375634e-15,0.1173947762797155,-0.34862296761857636,-1.0678399771365841e-13,0,70,255.0,255.0,255.0
279,13.950000000000001,5.039413026118603,9.35266311483809,-9.999999999999998,1.5929846147787352,-0.6303453131177414,-1.1781916617972501e-14,0.11199457954701147,-0.35466525122809034,6.4095059697851334e-15,0,70,255.0,255.0,255.0
280,14.0,5.1192,9.3207,-10.0,1.598449338837768,-0.6482296327693834,-8.631603727397326e-15,0.10659438281430056,-0.3607075348376041,1.1960300965322454e-13,0,70,255.0,255.0,255.0
281,14.05,5.199253762647029,9.287836270092233,-10.0,1.6036622215757361,-0.6663468405563742,-3.4097059422467243e-15,0.10192092670442172,-0.36398077664201395,8.927290175279654e-14,0,70,255.0,255.0,255.0
282,14.100000000000001,5.279562327610818,9.254062588242858,-10.0,1.6086414315082105,-0.6846277104335853,2.9568644788245528e-16,0.09724747059454289,-0.3672540184464238,5.894279385236854e-14,0,70,255.0,255.0,255.0
283,14.15,5.36011401125109,9.21937077134737,-10.0,1.6133869686351905,-0.7030722424010163,2.484573442990161e-15,0.09257401448466421,-0.3705272602508336,2.861268595194162e-14,0,70,255.0,255.0,255.0
284,14.200000000000001,5.440897129927578,9.183752636301254,-10.0,1.6178988329566768,-0.7216804364586685,3.1569550430765544e-15,0.08790055837478537,-0.37380050205524346,-1.7174219484863872e-15,0,70,255.0,255.0,255.0
285,14.25,5.5219,9.1472,-10.0,1.622177024472669,-0.7404522926065406,2.312831248141582e-15,0.08322710226490315,-0.377073743859655,-3.204752984891329e-14,0,70,255.0,255.0,255.0
286,14.3,5.603111724276954,9.109703616211025,-10.0,1.6262687301152206,-0.759451598528844,9.1362795365261e-16,0.08044112343715706,-0.38289849303247675,-2.3920601930644794e-14,0,70,255.0,255.0,255.0
287,14.350000000000001,5.684524551362501,9.071249986189471,-10.0,1.6302211368163848,-0.7787421419097887,-7.922894492293135e-17,0.07765514460941098,-0.3887232422052985,-1.5793674012376296e-14,0,70,255.0,255.0,255.0
288,14.4,5.766131516309568,9.031824548062403,-10.0,1.6340342445761618,-0.7983239227493738,-6.657394475850283e-16,0.07486916578166498,-0.39454799137812013,-7.666746094108089e-15,0,70,255.0,255.0,255.0
289,14.450000000000001,5.847925654171094,8.991412739956889,-10.0,1.6377080533945512,-0.8181969410476007,-8.459035543337233e-16,0.0720831869539189,-0.4003727405509419,4.60181824160409e-16,0,70,255.0,255.0,255.0
290,14.5,5.9299,8.95,-10.0,1.6412425632715535,-0.838361196804468,-6.197212651690025e-16,0.06929720812616935,-0.4061974897237626,8.587109742428616e-15,0,70,255.0,255.0,255.0
291,14.55,6.012046540245162,8.90757246506366,-10.0,1.6445748579633832,-0.8587747653282638,-2.4480587236371613e-16,0.06399457954701752,-0.4103452512280616,6.409505969782627e-15,0,70,255.0,255.0,255.0
292,14.600000000000001,6.094353066939192,8.864119066999251,-10.0,1.6476420212262555,-0.8793957219272748,2.1229331809269298e-17,0.05869195096786568,-0.41449301273236056,4.231902197136638e-15,0,70,255.0,255.0,255.0
293,14.65,6.176806323510637,8.819629436403012,-10.0,1.6504440530601698,-0.9002240666014998,1.7838434734995013e-16,0.053389322388714036,-0.4186407742366594,2.054298424490727e-15,0,70,255.0,255.0,255.0
294,14.700000000000001,6.259393053388058,8.77409320387118,-10.0,1.6529809534651267,-0.9212597993509405,2.266591742583374e-16,0.04808669380956221,-0.4227885357409584,-1.2330534815526305e-16,0,70,255.0,255.0,255.0
295,14.75,6.3421,8.7275,-10.0,1.6552527224411258,-0.9425029201755954,1.6605381253442785e-16,0.04278406523040523,-0.4269362972452537,-2.3009091208011738e-15,0,70,255.0,255.0,255.0
296,14.8,6.424914114742406,8.679839323534326,-10.0,1.6572718380312548,-0.9639613401581073,6.559553580225421e-17,0.037980558374746495,-0.43140050205521097,-1.7174219484857149e-15,0,70,255.0,255.0,255.0
297,14.850000000000001,6.507823180880748,8.631100145813512,-10.0,1.6590507782786004,-0.9856429703811171,-5.688382314146079e-18,0.03317705151908776,-0.43586470686516826,-1.133934776170256e-15,0,70,255.0,255.0,255.0
298,14.9,6.590815189647885,8.581271306325538,-10.0,1.6605895431831632,-1.007547810844624,-4.7797941814772056e-17,0.028373544663429194,-0.44032891167512533,-5.504476038548181e-16,0,70,255.0,255.0,255.0
299,14.950000000000001,6.673878132276685,8.530341644558375,-10.0,1.6618881327449435,-1.0296758615486297,-6.073314269962665e-17,0.023570037807770457,-0.4447931164850826,3.303956846064081e-17,0,70,255.0,255.0,255.0
300,15.0,6.757,8.4783,-10.0,1.6629465469639404,-1.0520271224931321,-4.449398496870898e-17,0.018766530952111893,-0.4492573212950415,6.16526740776079e-16,0,70,255.0,255.0,255.0
301,15.05,6.8401698007852225,8.425135040799033,-10.0,1.6638257899115914,-1.0746118740392832,-1.7576270845300816e-17,0.01640318695392896,-0.4541327405509887,4.601818241602325e-16,0,70,255.0,255.0,255.0
302,15.100000000000001,6.92338060953783,8.370834749746692,-10.0,1.6645868656593332,-1.0974403965482316,1.5241974473149141e-18,0.014039842955746028,-0.4590081598069359,3.0383690754438594e-16,0,70,255.0,255.0,255.0
303,15.15,7.006626517897823,8.315386938294832,-10.0,1.665229774207166,-1.1205126900199767,1.2807419909137954e-17,0.01167649895756318,-0.46388357906288286,1.47491990928545e-16,0,70,255.0,255.0,255.0
304,15.200000000000001,7.089901617505214,8.258779417895312,-10.0,1.6657545155550897,-1.1438287544545196,1.6273396540169094e-17,0.009313154959380248,-0.46875899831883006,-8.852925687301574e-18,0,70,255.0,255.0,255.0
305,15.25,7.1732,8.201,-10.0,1.666161089703104,-1.1673885898518592,1.1922127340408085e-17,0.006949810961190295,-0.4736344175747682,-1.6519784230314252e-16,0,70,255.0,255.0,255.0
306,15.3,7.256513882116711,8.142036513269534,-10.0,1.6663370023223734,-1.1911911636847536,4.70954757894904e-18,8.669380958278503e-05,-0.4784685357409949,-1.2330534815521522e-16,0,70,255.0,255.0,255.0
307,15.350000000000001,7.3398279809679465,8.08187685519972,-10.0,1.6661697590840623,-1.2152354434259593,-4.084074751136104e-19,-0.006776423342024725,-0.4833026539072216,-8.141285400728791e-17,0,70,255.0,255.0,255.0
308,15.4,7.423125138760823,8.020508940495134,-10.0,1.665659359988171,-1.2395214290754757,-3.431737821779797e-18,-0.013639540493631988,-0.48813677207344813,-3.9520359859362083e-17,0,70,255.0,255.0,255.0
309,15.450000000000001,7.50638819770247,7.957920683860365,-10.0,1.664805805034699,-1.264049120633304,-4.360443461049734e-18,-0.020502657645239498,-0.49297089023967483,2.372134288565213e-18,0,70,255.0,255.0,255.0
310,15.5,7.5896,7.8941,-10.0,1.663609094223647,-1.288818518099443,-3.1945243929233547e-18,-0.027365774796857423,-0.4978050084058978,4.4264628436490993e-17,0,70,255.0,255.0,255.0
311,15.55,7.6727458707479395,7.829034906122819,-10.0,1.6622182007989192,-1.3138234712217165,-1.261919470495344e-18,-0.0282699621922479,-0.5023931164850347,3.303956846062834e-17,0,70,255.0,255.0,255.0
312,15.600000000000001,7.755821066590398,7.762713829454428,-10.0,1.6607820980044223,-1.3390578297479472,1.0943245313952608e-19,-0.02917414958763838,-0.5069812245641715,2.181450848476569e-17,0,70,255.0,255.0,255.0
313,15.65,7.8388233270588845,7.695125299724627,-10.0,1.6593007858401554,-1.3645215936781336,9.195313779812374e-19,-0.030078336983028826,-0.5115693326433082,1.0589448508903434e-17,0,70,255.0,255.0,255.0
314,15.700000000000001,7.921750391684917,7.626257846663215,-10.0,1.6577742643061193,-1.3902147630122776,1.1683773040298467e-18,-0.030982524378419304,-0.5161574407224451,-6.35611466959217e-19,0,70,255.0,255.0,255.0
315,15.75,8.0046,7.5561,-10.0,1.6562025334023134,-1.4161373377503779,8.559702312853354e-19,-0.03188671177381153,-0.5207455488015782,-1.186067144282147e-17,0,70,255.0,255.0,255.0
316,15.8,8.087365834891537,7.484639862239178,-10.0,1.654342194481952,-1.442314951428388,3.3813030303233744e-19,-0.042526845040635815,-0.5263589983188098,-8.852925687298156e-18,0,70,255.0,255.0,255.0
317,15.850000000000001,8.170025352670475,7.411863826982562,-10.0,1.6519498488982498,-1.4687732375822597,-2.932233744449268e-20,-0.0531669783074601,-0.5319724478360415,-5.84517993177484e-18,0,70,255.0,255.0,255.0
318,15.9,8.25255195300364,7.337757860606356,-10.0,1.6490254966512063,-1.495512196211992,-2.4638769014514993e-19,-0.06380711157428401,-0.537585897353273,-2.8374341762516318e-18,0,70,255.0,255.0,255.0
319,15.950000000000001,8.334919035557872,7.262307929486766,-10.0,1.6455691377408213,-1.5225318273175867,-3.130657550696495e-19,-0.07444724484110829,-0.5431993468705046,1.7031157927168437e-19,0,70,255.0,255.0,255.0
320,16.0,8.4171,7.1855,-10.0,1.6415807721670956,-1.5498321308990424,-2.2935653221798693e-19,-0.08508737810793043,-0.5488127963877414,3.178057334794892e-18,0,70,255.0,255.0,255.0
321,16.05,8.499063589685914,7.107320844920457,-10.0,1.636781021273267,-1.5773647230647285,-9.06017416340056e-20,-0.10690265764521309,-0.5524908902396899,2.3721342885642824e-18,0,70,255.0,255.0,255.0
322,16.1,8.580759922727713,7.027760462615316,-10.0,1.6308905064025743,-1.6050812199230122,7.856896638444673e-21,-0.12871793718249575,-0.5561689840916384,1.5662112423336732e-18,0,70,255.0,255.0,255.0
323,16.150000000000002,8.66213446092656,6.946809657849944,-10.0,1.6239092275550173,-1.6329816214738933,6.601938259936399e-20,-0.15053321671977843,-0.5598470779435869,7.60288196103064e-19,0,70,255.0,255.0,255.0
324,16.2,8.743132666083598,6.864459235389719,-10.0,1.6158371847305968,-1.6610659277173696,8.38857162487523e-20,-0.17234849625705953,-0.5635251717955352,-4.5634850127488073e-20,0,70,255.0,255.0,255.0
325,16.25,8.8237,6.7807,-10.0,1.6066743779293116,-1.6893341386534457,6.145589758661238e-20,-0.1941637757943493,-0.5672032656474784,-8.515578963580975e-19,0,70,255.0,255.0,255.0
326,16.3,8.903787806364816,6.695527158078987,-10.0,1.5967737204249912,-1.7175221563126943,2.427666350368503e-20,-0.20186252437845245,-0.5603174407224556,-6.356114669589753e-19,0,70,255.0,255.0,255.0
327,16.35,8.98337095641868,6.608953522556165,-10.0,1.586488125491466,-1.7453658827256922,-2.1052491092860563e-21,-0.2095612729625556,-0.5534316157974329,-4.1966503755985326e-19,0,70,255.0,255.0,255.0
328,16.400000000000002,9.062430203290143,6.520996307993852,-10.0,1.5758175931287355,-1.7728653178924385,-1.76898402523009e-20,-0.21726002154665874,-0.5465457908724102,-2.0371860816073118e-19,0,70,255.0,255.0,255.0
329,16.45,9.140946300107732,6.431672728954364,-10.0,1.5647621233368008,-1.800020461812932,-2.2477109925359512e-20,-0.22495877013076135,-0.539659965947388,1.2227821238375682e-20,0,70,255.0,255.0,255.0
330,16.5,9.2189,6.341,-10.0,1.55332171611566,-1.826831314487176,-1.6467058128462572e-20,-0.23265751871486628,-0.5327741410223634,2.2817425063749795e-19,0,70,255.0,255.0,255.0
331,16.55,9.296271584854837,6.248993722763592,-10.0,1.541468097026761,-1.853394651684498,-6.504912380734514e-21,-0.24148724484109263,-0.5297593468705063,1.703115792716187e-19,0,70,255.0,255.0,255.0
332,16.6,9.373039451597574,6.155663047160008,-10.0,1.5291729916315504,-1.8798072491742275,5.640997986995385e-22,-0.250316970967319,-0.5267445527186492,1.1244890790573943e-19,0,70,255.0,255.0,255.0
333,16.650000000000002,9.44918152591289,6.061015510174627,-10.0,1.5164363999300285,-1.9060691069563638,4.7399784098395894e-21,-0.2591466970935454,-0.5237297585667919,5.45862365398602e-20,0,70,255.0,255.0,255.0
334,16.7,9.524675733485466,5.9650586487928345,-10.0,1.5032583219221967,-1.9321802250309055,6.022723452685654e-21,-0.2679764232197711,-0.520714964414935,-3.2764348260149443e-21,0,70,255.0,255.0,255.0
335,16.75,9.5995,5.8678,-10.0,1.489638757608052,-1.9581406033978561,4.4123349272379004e-21,-0.276806149346001,-0.5177001702630779,-6.113910619189416e-20,0,70,255.0,255.0,255.0
336,16.8,9.673631454215842,5.769247550866638,-10.0,1.4755298914679753,-1.9839232369493214,1.7429860192530245e-21,-0.28754849625706824,-0.5136051717955143,-4.5634850127499364e-20,0,70,255.0,255.0,255.0
337,16.85,9.747044037191042,5.669411088803788,-10.0,1.4608839079823448,-2.0095011205774083,-1.511500855121007e-22,-0.29829084316813553,-0.5095101733279509,-3.013059406310457e-20,0,70,255.0,255.0,255.0
338,16.900000000000002,9.81971089305832,5.568300851307617,-10.0,1.4457008071511612,-2.034874254282117,-1.2700733870574756e-21,-0.30903319007920277,-0.5054151748603873,-1.4626337998709787e-20,0,70,255.0,255.0,255.0
339,16.95,9.891605165950395,5.465927075874303,-10.0,1.4299805889744253,-2.0600426380634462,-1.6137838853831042e-21,-0.3197755369902693,-0.5013201763928241,8.779180656839026e-22,0,70,255.0,255.0,255.0
340,17.0,9.9627,5.3623,-10.0,1.413723253452135,-2.085006271921398,-1.1822815804890318e-21,-0.3305178839013436,-0.49722517792525167,1.638217413007869e-20,0,70,255.0,255.0,255.0
341,17.05,10.032968998281802,5.257430473769847,-10.0,1.3969563371013318,-2.1097284005182146,-4.670316962775852e-22,-0.34015877013076773,-0.49165996594739303,1.222782123837877e-20,0,70,255.0,255.0,255.0
342,17.1,10.102387599638277,5.151331797624825,-10.0,1.3797073764390575,-2.134172268516138,4.0500543348862514e-23,-0.3497996563601919,-0.4860947539695344,8.07346834667885e-21,0,70,255.0,255.0,255.0
343,17.150000000000002,10.170931701853851,5.044017884594878,-10.0,1.3619763714653121,-2.158337875915169,3.403151383903113e-22,-0.359440542589616,-0.48052954199167575,3.919115454978929e-21,0,70,255.0,255.0,255.0
344,17.2,10.238577202712948,4.93550264770996,-10.0,1.3437633221800969,-2.1822252227153047,4.324120888467617e-22,-0.36908142881903944,-0.47496433001381755,-2.352374367206962e-22,0,70,255.0,255.0,255.0
345,17.25,10.3053,4.8258,-10.0,1.325068228583409,-2.2058343089165495,3.1679139471822743e-22,-0.37872231504846354,-0.4693991180359447,-4.3895903284206145e-21,0,70,255.0,255.0,255.0
346,17.3,10.371076552656957,4.7149225540539685,-10.0,1.305924760126703,-2.229243160977822,1.2514076585731627e-22,-0.38701642321976676,-0.466954964414937,-3.2764348260157215e-21,0,70,255.0,255.0,255.0
347,17.35,10.435885564255862,4.6028777206969,-10.0,1.2863665862614317,-2.2525298053580443,-1.0852087883349438e-23,-0.39531053139107,-0.4645108107939293,-2.163279323610829e-21,0,70,255.0,255.0,255.0
348,17.400000000000002,10.499706299526292,4.489671610312845,-10.0,1.2663937069875955,-2.2756942420572153,-9.118716650376959e-23,-0.4036046395623732,-0.46206665717292156,-1.0501238212059359e-21,0,70,255.0,255.0,255.0
349,17.45,10.56251802319781,4.375310333285865,-10.0,1.2460061223051955,-2.298736471075335,-1.1586447000394476e-22,-0.4118987477336758,-0.45962250355191403,6.303168119887772e-23,0,70,255.0,255.0,255.0
350,17.5,10.6243,4.2598,-10.0,1.2252038322142285,-2.3216564924124055,-8.488399838387807e-23,-0.4201928559049808,-0.4571783499308886,1.1761871836037703e-21,0,70,255.0,255.0,255.0
351,17.55,10.685030391090377,4.143148110014272,-10.0,1.2039206223918466,-2.3443709555704983,-3.353136715168012e-23,-0.4311355369902854,-0.45140017639281416,8.779180656841187e-22,0,70,255.0,255.0,255.0
352,17.6,10.744682943338281,4.025367719587562,-10.0,1.1820902785151994,-2.3667965100516875,2.907808184535033e-24,-0.44207821807558995,-0.44562200285473974,5.79648947764467e-22,0,70,255.0,255.0,255.0
353,17.650000000000002,10.803230300040996,3.9064732741537154,-10.0,1.159712800584287,-2.388933155855973,2.4433527624767393e-23,-0.45302089916089455,-0.4398438293166653,2.813798298448153e-22,0,70,255.0,255.0,255.0
354,17.7,10.860645104495802,3.7864792191465853,-10.0,1.136788188599111,-2.410780892983353,3.104579116901704e-23,-0.4639635802461983,-0.43406565577859135,-1.6889288074815246e-23,0,70,255.0,255.0,255.0
355,17.75,10.9169,3.6654,-10.0,1.113316442559668,-2.432339721433831,2.2744598817284855e-23,-0.47490626133151004,-0.42828748224051694,-3.151584059944669e-22,0,70,255.0,255.0,255.0
356,17.8,10.971968282981534,3.543249005888934,-10.0,1.0893367503059046,-2.45367301674019,8.984702749404164e-24,-0.4842814288190124,-0.4250443300138208,-2.352374367207529e-22,0,70,255.0,255.0,255.0
357,17.85,11.025825862391018,3.4200354009528326,-10.0,1.0648882996777662,-2.4748441544352136,-7.791448547907711e-25,-0.4936565963065148,-0.4218011777871246,-1.5531646744703895e-22,0,70,255.0,255.0,255.0
358,17.900000000000002,11.078449300309737,3.2957672930722643,-10.0,1.0399710906752524,-2.495853134518903,-6.546943995299949e-24,-0.5030317637940173,-0.4185580255604285,-7.539549817332499e-23,0,70,255.0,255.0,255.0
359,17.95,11.12981515881897,3.1704527901278037,-10.0,1.0145851232983656,-2.5166999569912556,-8.318694672123392e-24,-0.5124069312815189,-0.4153148733337325,4.525471100383308e-24,0,70,255.0,255.0,255.0
360,18.0,11.1799,3.0441,-10.0,0.9887303975471013,-2.5373846218522753,-6.094396885261346e-24,-0.5217820987690232,-0.4120717211070364,8.444644037409732e-23,0,70,255.0,255.0,255.0
361,18.05,11.228680476983492,2.916717466429982,-10.0,0.9624123763845328,-2.557880977468749,-2.407443845936533e-24,-0.5309387477337055,-0.4077825035518891,6.303168119889309e-23,0,70,255.0,255.0,255.0
362,18.1,11.276133607097648,2.788315476601084,-10.0,0.9356365227737301,-2.5781628722074648,2.0877123462805274e-25,-0.540095396698388,-0.40349328599674184,4.1616922023688855e-23,0,70,255.0,255.0,255.0
363,18.150000000000002,11.322236498720063,2.6589047535571946,-10.0,0.9084028367146932,-2.5982303060684235,1.7542483564324105e-24,-0.5492520456630704,-0.39920406844159456,2.0202162848484623e-23,0,70,255.0,255.0,255.0
364,18.2,11.366966260228315,2.5284960203422098,-10.0,0.8807113182074242,-2.6180832790516235,2.2289875194765475e-24,-0.5584086946277522,-0.39491485088644757,-1.2125963267180921e-24,0,70,255.0,255.0,255.0
365,18.25,11.4103,2.3971,-10.0,0.852561967251919,-2.6377217911570674,1.632988723760527e-24,-0.5675653435924373,-0.390625633331279,-2.262735550192233e-23,0,70,255.0,255.0,255.0
366,18.3,11.4522146090845,2.264727528391128,-10.0,0.8239417441559533,-2.657139073384814,6.4507263434197015e-25,-0.5772435802461764,-0.386065655778588,-1.688928807481938e-23,0,70,255.0,255.0,255.0
367,18.35,11.492686109218385,2.131389892642809,-10.0,0.7948376092273005,-2.6763283567349267,-5.594008372143522e-26,-0.5869218168999155,-0.3815056782258969,-1.1151220647716432e-23,0,70,255.0,255.0,255.0
368,18.400000000000002,11.53169030481002,1.997098492698925,-10.0,0.7652495624659609,-2.6952896412074043,-4.700494304296888e-25,-0.5966000535536546,-0.37694570067320593,-5.413153220613483e-24,0,70,255.0,255.0,255.0
369,18.45,11.569203000267768,1.8618647285033678,-10.0,0.7351776038719363,-2.714022926802247,-5.972554057827919e-25,-0.6062782902073931,-0.3723857231205152,3.249142064890574e-25,0,70,255.0,255.0,255.0
370,18.5,11.6052,1.7257,-10.0,0.7046217334452227,-2.732528213519455,-4.375580097807629e-25,-0.6159565268611331,-0.36782574556782066,6.062981633592009e-24,0,70,255.0,255.0,255.0
371,18.55,11.63965708667851,1.5886156200054964,-10.0,0.6735806469916558,-2.750810728991994,-1.7284669143134785e-25,-0.6256869312815292,-0.3634748733337431,4.525471100384444e-24,0,70,255.0,255.0,255.0
372,18.6,11.672549956028817,1.4506225528276584,-10.0,0.6420530403170689,-2.76887570085283,1.4989100257687882e-26,-0.6354173357019252,-0.3591240010996656,2.987960567176879e-24,0,70,255.0,255.0,255.0
373,18.650000000000002,11.703854282039869,1.3117316756470712,-10.0,0.6100389134214623,-2.7867231291019614,1.2594936528634427e-25,-0.6451477401223212,-0.35477312886558804,1.450450033969314e-24,0,70,255.0,255.0,255.0
374,18.7,11.73354573870061,1.17195386564433,-10.0,0.5775382663048382,-2.8043530137393877,1.6003410365462167e-25,-0.6548781445427165,-0.3504222566315108,-8.706049923814194e-26,0,70,255.0,255.0,255.0
375,18.75,11.7616,1.0313,-10.0,0.5445510989671921,-2.8217653547651116,1.172433153625247e-25,-0.6646085489631117,-0.346071384397419,-1.6245710324457077e-24,0,70,255.0,255.0,255.0
376,18.8,11.78799304420146,0.8897803915868753,-10.0,0.5110956678774199,-2.8389940106472085,4.6314131383421093e-26,-0.6736086946277584,-0.3430748508864354,-1.2125963267183957e-24,0,70,255.0,255.0,255.0
377,18.85,11.812702066666356,0.7474030960465344,-10.0,0.4771902295044153,-2.856072839853756,-4.016317309316616e-27,-0.6826088402924051,-0.3400783173754518,-8.006216209910839e-25,0,70,255.0,255.0,255.0
378,18.900000000000002,11.835704567030517,0.6041756047127548,-10.0,0.4428347838481784,-2.873001842384754,-3.3748030715688397e-26,-0.6916089859570518,-0.3370817838644682,-3.88646915263772e-25,0,70,255.0,255.0,255.0
379,18.95,11.856978044929784,0.46010540891932433,-10.0,0.4080293309087117,-2.8897810182402015,-4.288100883569447e-26,-0.7006091316216978,-0.3340852503534848,2.332779046351054e-26,0,70,255.0,255.0,255.0
380,19.0,11.8765,0.3152,-10.0,0.37277387068601014,-2.9064103674201016,-3.1415251669335936e-26,-0.7096092772863449,-0.3310887168425012,4.353024961908227e-25,0,70,255.0,255.0,255.0
381,19.05,11.894245936515642,0.16946841364699053,-10.0,0.33694868149866614,-2.922797228419177,-1.2409834102336598e-26,-0.7233982902073949,-0.3243857231205111,3.2491420648913997e-25,0,70,255.0,255.0,255.0
382,19.1,11.910183377305767,0.022925862986179758,-10.0,0.30043404166526966,-2.938848939732153,1.0761689795785265e-27,-0.7371873031284447,-0.31768272939852105,2.1452591678745732e-25,0,70,255.0,255.0,255.0
383,19.150000000000002,11.924277849838068,-0.1244108944981273,-10.0,0.26322995118582065,-2.9545655013590295,9.04275757640944e-27,-0.7509763160494947,-0.310979735676531,1.0413762708577467e-25,0,70,255.0,255.0,255.0
384,19.200000000000003,11.936494881580249,-0.2725251013216258,-10.0,0.2253364100603191,-2.969946913299807,1.1489931688156147e-26,-0.7647653289705445,-0.3042767419545409,-6.250662615908021e-27,0,70,255.0,255.0,255.0
385,19.25,11.9468,-0.4214,-10.0,0.18675341828876785,-2.9849931755544836,8.417691314819042e-27,-0.7785543418915928,-0.2975737482325549,-1.1663895231758277e-25,0,70,255.0,255.0,255.0
386,19.3,11.95515920973597,-0.57101404617485,-10.0,0.14750960612790984,-2.999417075676085,3.3252050259252974e-27,-0.7911981445427049,-0.2793822566314991,-8.70604992381641e-26,0,70,255.0,255.0,255.0
387,19.35,11.96154042411058,-0.7213265479912786,-10.0,0.10763360383449623,-3.0129314012176343,-2.883586089974914e-28,-0.803841947193817,-0.2611907650304433,-5.748204615874541e-26,0,70,255.0,255.0,255.0
388,19.400000000000002,11.96591203361721,-0.8722920267202834,-10.0,0.067125411408527,-3.02553615217913,-2.4229995899493244e-27,-0.8164857498449292,-0.2429992734293875,-2.7903593079326724e-26,0,70,255.0,255.0,255.0
389,19.450000000000003,11.968242428749225,-1.0238650036328616,-10.0,0.025985028850002163,-3.0372313285605728,-3.0787179169302043e-27,-0.8291295524960413,-0.22480778182833172,1.6748600000919507e-27,0,70,255.0,255.0,255.0
390,19.5,11.9685,-1.176,-10.0,-0.015787543841075297,-3.048016930361962,-2.255513589940238e-27,-0.8417733551471523,-0.20661629022728079,3.1253313079508537e-26,0,70,255.0,255.0,255.0
391,19.55,11.966659624540481,-1.3286538289476035,-10.0,-0.05780310601029762,-3.0580304688764817,-8.90986001364594e-28,-0.8388491316217168,-0.19392525035349434,2.3327790463516446e-26,0,70,255.0,255.0,255.0
392,19.6,11.962722126251908,-1.4817924710210908,-10.0,-0.09967245700324817,-3.067409455397312,7.726545641143983e-29,-0.8359249080962813,-0.18123421047970786,1.5402267847524354e-26,0,70,255.0,255.0,255.0
393,19.650000000000002,11.956694815693094,-1.6353841986207778,-10.0,-0.14139559681992697,-3.0761538899244525,6.492407833878633e-28,-0.8330006845708459,-0.1685431706059214,7.476745231532263e-27,0,70,255.0,255.0,255.0
394,19.700000000000003,11.948585003422854,-1.7893972841469792,-10.0,-0.18297252546033393,-3.0842637724579043,8.24939979564677e-28,-0.8300764610454103,-0.15585213073213494,-4.487773844598276e-28,0,70,255.0,255.0,255.0
395,19.75,11.9384,-1.9438,-10.0,-0.2244032429244662,-3.091739102997666,6.043630449419091e-28,-0.8271522375199736,-0.14316109085834228,-8.374300000451353e-27,0,70,255.0,255.0,255.0
396,19.8,11.926145492102107,-2.0985602380347483,-10.0,-0.2657851820867294,-3.0985570488179883,2.387389795330782e-28,-0.8281253289705318,-0.12955674195453903,-6.250662615901674e-27,0,70,255.0,255.0,255.0
397,19.85,11.911820670881784,-2.2536443679243834,-10.0,-0.3072157758215206,-3.1046947771931204,-2.07032166482672e-29,-0.8290984204210899,-0.1159523930507358,-4.127025231351995e-27,0,70,255.0,255.0,255.0
398,19.900000000000002,11.895423103610412,-2.409018378796645,-10.0,-0.34869502412883957,-3.1101522881230617,-1.7396354360212725e-28,-0.8300715118716482,-0.10234804414693258,-2.0033878468023164e-27,0,70,255.0,255.0,255.0
399,19.950000000000003,11.876950357559359,-2.564648259779274,-10.0,-0.39022292700868655,-3.1149295816078135,-2.210420013285017e-28,-0.8310446033222063,-0.08874369524312933,1.2024953774736263e-28,0,70,255.0,255.0,255.0
400,20.0,11.8564,-2.7205,-10.0,-0.4317994844610584,-3.119026657647374,-1.6193858982739885e-28,-0.8320176947727624,-0.0751393463393022,2.243886922296891e-27,0,70,255.0,255.0,255.0
401,20.05,11.833769607051096,-2.8765396189134154,-10.0,-0.47342416564277884,-3.122445335851565,-6.396991676771861e-29,-0.8329695524960311,-0.06160778182832639,1.674860000090263e-27,0,70,255.0,255.0,255.0
402,20.1,11.809056790220954,-3.0327332572814014,-10.0,-0.5150964397106628,-3.1251874358302065,5.547410181629804e-30,-0.8339214102192998,-0.04807621731735058,1.1058330778836346e-27,0,70,255.0,255.0,255.0
403,20.150000000000002,11.782259169865261,-3.1890470861926814,-10.0,-0.55681630666471,-3.1272529575833,4.6613391020646415e-29,-0.8348732679425684,-0.034544652806374775,5.368061556770066e-28,0,70,255.0,255.0,255.0
404,20.200000000000003,11.753374366339711,-3.3454472767359773,-10.0,-0.5985837665049207,-3.1286419011108446,5.922802574933121e-29,-0.8358251256658371,-0.02101308829539897,-3.222076652962182e-29,0,70,255.0,255.0,255.0
405,20.25,11.7224,-3.5019,-10.0,-0.6403988192312919,-3.1293542664128395,4.3391314367686346e-29,-0.8367769833891057,-0.007481523784420574,-6.012476887362094e-28,0,70,255.0,255.0,255.0
406,20.3,11.689334479693509,-3.658370886311603,-10.0,-0.6822141553421568,-3.1293576077757534,1.7140687537796335e-29,-0.835836461045465,0.007347869267869312,-4.4877738445937605e-28,0,70,255.0,255.0,255.0
407,20.35,11.654179368234404,-3.814823402950036,-10.0,-0.7239824653358397,-3.1286194794860527,-1.4864240782519032e-30,-0.8348959387018243,0.022177262320159197,-2.9630708018254277e-28,0,70,255.0,255.0,255.0
408,20.400000000000002,11.616937016928542,-3.971220476432669,-10.0,-0.7657037492123404,-3.1271398815437372,-1.2490020480458358e-29,-0.8339554163581837,0.037006655372449085,-1.4383677590570948e-28,0,70,255.0,255.0,255.0
409,20.450000000000003,11.577609777081788,-4.1275250332768705,-10.0,-0.8073780069716592,-3.1249188139488075,-1.5870101668823063e-29,-0.8330148940145431,0.05183604842473897,8.633528371123845e-30,0,70,255.0,255.0,255.0
410,20.5,11.5362,-4.2837,-10.0,-0.849005238613793,-3.121956276701263,-1.1626667643346526e-29,-0.832074371670906,0.06666544147705267,1.6110383264794628e-28,0,70,255.0,255.0,255.0
411,20.55,11.492709274174866,-4.439709635840185,-10.0,-0.8906312129886195,-3.1183322330454146,-4.592833383466739e-30,-0.8329646033221341,0.07829630475688364,1.2024953774724124e-28,0,70,255.0,255.0,255.0
412,20.6,11.447136136841428,-4.595523530918479,-10.0,-0.9323016989460076,-3.114126646225575,3.982861313777693e-31,-0.8338548349733621,0.0899271680367146,7.939524284653622e-29,0,70,255.0,255.0,255.0
413,20.650000000000002,11.399478362420554,-4.751112608076681,-10.0,-0.974016696485957,-3.109339516241743,3.346690901186996e-30,-0.8347450666245901,0.10155803131654559,3.854094794583121e-29,0,70,255.0,255.0,255.0
414,20.700000000000003,11.349733725333122,-4.906447790156592,-10.0,-1.0157762056084678,-3.10397084309392,4.252380925960945e-30,-0.8356352982758182,0.11318889459637654,-2.31334695487383e-30,0,70,255.0,255.0,255.0
415,20.75,11.2979,-5.0615,-10.0,-1.057580226313537,-3.0980206267821058,3.1153562056997665e-30,-0.8365255299270409,0.1248197578762209,-4.3167641855575953e-29,0,70,255.0,255.0,255.0
416,20.8,11.243975623607023,-5.216238570327667,-10.0,-1.0993889927033595,-3.091393460042585,1.230645996070613e-30,-0.8358251256658342,0.14026691170459551,-3.222076652958911e-29,0,70,255.0,255.0,255.0
417,20.85,11.18796168439988,-5.370626473376072,-10.0,-1.1411627388801215,-3.083993935611646,-1.0672044725919017e-31,-0.8351247214046275,0.1557140655329701,-2.127389120360226e-29,0,70,255.0,255.0,255.0
418,20.900000000000002,11.129859933389227,-5.524625091260646,-10.0,-1.1829014648438234,-3.075822053489288,-8.967431242896428e-31,-0.8344243171434208,0.1711612193613447,-1.0327015877615416e-29,0,70,255.0,255.0,255.0
419,20.950000000000003,11.069672121585713,-5.678195806096816,-10.0,-1.2246051705944647,-3.0668778136755113,-1.1394220350207459e-30,-0.833723912882214,0.18660837318971932,6.198594483714352e-31,0,70,255.0,255.0,255.0
420,21.0,11.0074,-5.8313,-10.0,-1.266273856132043,-3.0571612161703166,-8.34757179452539e-31,-0.8330235086210074,0.20205552701810703,1.1566734774357507e-29,0,70,255.0,255.0,255.0
421,21.05,10.943044231397042,-5.98390008284916,-10.0,-1.307972816197934,-3.0467339267842446,-3.2975060081571553e-31,-0.8349348940146094,0.2150360484247651,8.633528371115149e-30,0,70,255.0,255.0,255.0
422,21.1,10.876601125559045,-6.135962575577256,-10.0,-1.3497673455335053,-3.03565761132784,2.8595657658987994e-32,-0.8368462794082113,0.22801656983142315,5.700321967872789e-30,0,70,255.0,255.0,255.0
423,21.150000000000002,10.808065904022527,-6.287455026880775,-10.0,-1.3916574441387564,-3.023932269801102,2.402815959715717e-31,-0.8387576648018134,0.24099709123808125,2.767115564630431e-30,0,70,255.0,255.0,255.0
424,21.200000000000003,10.737433788324005,-6.438344985456198,-10.0,-1.4336431120136877,-3.0115579022040313,3.053072141220349e-31,-0.8406690501954154,0.2539776126447393,-1.6609083861192927e-31,0,70,255.0,255.0,255.0
425,21.25,10.6647,-6.5886,-10.0,-1.4757243491582963,-2.9985345085366286,2.2367251211038956e-31,-0.8425804355890261,0.26695813405138935,-3.099297241854078e-30,0,70,255.0,255.0,255.0
426,21.3,10.58986105080481,-6.738187498275709,-10.0,-1.5178237425049168,-2.9848548328204347,8.835640719224846e-32,-0.841395298275771,0.28022889459636197,-2.3133469548714897e-30,0,70,255.0,255.0,255.0
427,21.35,10.512918613363933,-6.8870744243149264,-10.0,-1.5598638789858745,-2.970511619076992,-7.662183376762694e-33,-0.8402101609625159,0.2934996551413345,-1.5273966678889019e-30,0,70,255.0,255.0,255.0
428,21.400000000000002,10.43387565052065,-7.035227601216291,-10.0,-1.6018447586011695,-2.955504867306301,-6.438325959664389e-32,-0.8390250236492608,0.30677041568630714,-7.4144638090631405e-31,0,70,255.0,255.0,255.0
429,21.450000000000003,10.352735125118244,-7.18261385207844,-10.0,-1.6437663813508019,-2.9398345775083605,-8.180682146739511e-32,-0.8378398863360057,0.3200411762312797,4.450390607627413e-32,0,70,255.0,255.0,255.0
430,21.5,10.2695,-7.3292,-10.0,-1.6856287472347684,-2.923500749683174,-5.99328689890194e-32,-0.8366547490227507,0.3333119367762549,8.304541930588063e-31,0,70,255.0,255.0,255.0
431,21.55,10.184172365383708,-7.474952324048019,-10.0,-1.7274842137823936,-2.9064707419340237,-2.3675027953278416e-32,-0.8375639128822375,0.34788837318974564,6.198594483708127e-31,0,70,255.0,255.0,255.0
432,21.6,10.09675082098521,-7.619834927163062,-10.0,-1.7693851385229933,-2.888711912364199,2.053075848062741e-33,-0.8384730767417242,0.36246480960323635,4.092647036828191e-31,0,70,255.0,255.0,255.0
433,21.650000000000002,10.007233093894856,-7.763811368254097,-10.0,-1.8113315214565673,-2.8702242609736994,1.725144241500408e-32,-0.839382240601211,0.37704124601672706,1.9866995899482543e-31,0,70,255.0,255.0,255.0
434,21.700000000000003,9.915616911203001,-7.906845206230091,-10.0,-1.8533233625831156,-2.851007787762526,2.1920071747545572e-32,-0.8402914044606977,0.3916176824302178,-1.1924785693168127e-32,0,70,255.0,255.0,255.0
435,21.75,9.8219,-8.0489,-10.0,-1.8953606619026355,-2.8310624927306787,1.6058963845688024e-32,-0.8412005683201862,0.4061941188437146,-2.225195303811468e-31,0,70,255.0,255.0,255.0
436,21.8,9.726080687660351,-8.18994000553223,-10.0,-1.9374074023655263,-2.810430199443467,6.343704620865205e-33,-0.8406690501954195,0.41909761264474543,-1.6609083861176046e-31,0,70,255.0,255.0,255.0
437,21.85,9.628159702695216,-8.32993226703285,-10.0,-1.9794275669221786,-2.7891527314662037,-5.501200154882554e-34,-0.8401375320706528,0.4320011064457763,-1.096621468423741e-31,0,70,255.0,255.0,255.0
438,21.900000000000002,9.5281383738999,-8.468844525767354,-10.0,-2.0214211555725927,-2.7672300887988888,-4.622510063372357e-33,-0.8396060139458861,0.4449046002468071,-5.323345507298774e-32,0,70,255.0,255.0,255.0
439,21.950000000000003,9.426018030069724,-8.60664452300124,-10.0,-2.0633881683167683,-2.744662271441522,-5.8734655227871066e-33,-0.8390744958211194,0.45780809404783795,3.195236696398598e-33,0,70,255.0,255.0,255.0
440,22.0,9.3218,-8.7433,-10.0,-2.105328605154703,-2.7214492793941063,-4.3029863937327004e-33,-0.8385429776963456,0.47071158784885725,5.962392846578097e-32,0,70,255.0,255.0,255.0
441,22.05,9.215484883974876,-8.87877885382307,-10.0,-2.1472861767555114,-2.6976004602921035,-1.699790530182411e-33,-0.839759886335964,0.4832411762312356,4.4503906076229135e-32,0,70,255.0,255.0,255.0
442,22.1,9.107070368233913,-9.013049604705563,-10.0,-2.1893045937883002,-2.673125161770982,1.4740421389027634e-34,-0.8409767949755825,0.4957707646136139,2.93838836866773e-32,0,70,255.0,255.0,255.0
443,22.150000000000002,8.996553410505511,-9.14608092867652,-10.0,-2.231383856253071,-2.6480233838307417,1.2385978384853608e-33,-0.842193703615201,0.5083003529959923,1.4263861297125462e-32,0,70,255.0,255.0,255.0
444,22.200000000000003,8.883930968518069,-9.277841501764987,-10.0,-2.2735239641498217,-2.622295126471382,1.573790343602842e-33,-0.8434106122548194,0.5208299413783706,-8.56161092426374e-34,0,70,255.0,255.0,255.0
445,22.25,8.7692,-9.4083,-10.0,-2.315724917478551,-2.5959403896929056,1.1529817292427797e-33,-0.8446275208944378,0.533359529760741,-1.597618348197712e-32,0,70,255.0,255.0,255.0
446,22.3,8.652358176440133,-9.5374221791755,-10.0,-2.3579438906124306,-2.5687839593881305,4.554574998644384e-34,-0.844131404460726,0.5528976824302527,-1.1924785693156131e-32,0,70,255.0,255.0,255.0
447,22.35,8.533406024369116,-9.665162114144925,-10.0,-2.4001380579246243,-2.5406506214498794,-3.9496840072850534e-35,-0.8436352880270143,0.5724358350997646,-7.873387904335143e-33,0,70,255.0,255.0,255.0
448,22.400000000000002,8.41234478407803,-9.791470959526603,-10.0,-2.442307419415133,-2.511540375878153,-3.3188129056908714e-34,-0.8431391715933024,0.5919739877692765,-3.821990115514155e-33,0,70,255.0,255.0,255.0
449,22.450000000000003,8.28917569585796,-9.916299869938854,-10.0,-2.484451975083956,-2.4814532226729513,-4.216958516242716e-34,-0.8426430551595906,0.6115121404387882,2.2940767330683485e-34,0,70,255.0,255.0,255.0
450,22.5,8.1639,-10.0396,-10.0,-2.52657172493109,-2.450389161834276,-3.089405232384191e-34,-0.8421469387258753,0.6310502931082809,4.280805462127532e-33,0,70,255.0,255.0,255.0
451,22.55,8.03652641026458,-10.16132122947494,-10.0,-2.5682182607947657,-2.418271702155373,-1.220394692753429e-34,-0.8237144958211187,0.6536480940478486,3.1952366963954094e-33,0,70,255.0,255.0,255.0
452,22.6,7.907093534289608,-10.281408338714757,-10.0,-2.608943174513203,-2.38502435242949,1.058314640112635e-35,-0.805282052916362,0.6762458949874165,2.109667930663286e-33,0,70,255.0,255.0,255.0
453,22.650000000000002,7.775647453182343,-10.39980483321711,-10.0,-2.6487464660864024,-2.3506471126566297,8.892732379098868e-35,-0.7868496100116054,0.6988436959269844,1.024099164931163e-33,0,70,255.0,255.0,255.0
454,22.700000000000003,7.642234248050051,-10.516454218479643,-10.0,-2.6876281355143647,-2.315139982836791,1.1299306289424405e-34,-0.7684171671068487,0.7214414968665521,-6.146960080095999e-35,0,70,255.0,255.0,255.0
455,22.75,7.5069,-10.6313,-10.0,-2.725588182797086,-2.2785029629699767,8.278036371089664e-35,-0.7499847242020721,0.7440392978061006,-1.1470383665330068e-33,0,70,255.0,255.0,255.0
456,22.8,7.369688182501536,-10.744294502924754,-10.0,-2.762783066208509,-2.241265231990366,3.2700377236933197e-35,-0.7378106122548187,0.7454699413783196,-8.561610924255024e-34,0,70,255.0,255.0,255.0
457,22.85,7.230631838472434,-10.855425330996063,-10.0,-2.799369244022569,-2.203955968832144,-2.8357455316548155e-36,-0.7256365003075654,0.7469005849505387,-5.652838183179981e-34,0,70,255.0,255.0,255.0
458,22.900000000000002,7.089761403192564,-10.964688907604994,-10.0,-2.8353467162392665,-2.1665751734953105,-2.38280045948674e-35,-0.7134623883603121,0.7483312285227577,-2.744065442104938e-34,0,70,255.0,255.0,255.0
459,22.950000000000003,6.947107311941792,-11.07208165614262,-10.0,-2.870715482858601,-2.129122845979867,-3.027639995270457e-35,-0.7012882764130588,0.7497618720949768,1.6470729897010569e-35,0,70,255.0,255.0,255.0
460,23.0,6.8027,-11.1776,-10.0,-2.905475543880571,-2.0915989862858146,-2.218093160516743e-35,-0.689114164465785,0.7511925156672064,3.0734800400449408e-34,0,70,255.0,255.0,255.0
461,23.05,6.656571259729264,-11.281237558826053,-10.0,-2.9395454743712053,-2.0538353698831644,-8.762039672389885e-36,-0.6736830551595672,0.7593521404387823,2.2940767330660016e-34,0,70,255.0,255.0,255.0
462,23.1,6.50875831182063,-11.382976737301009,-10.0,-2.9728438493965283,-2.0156637722419353,7.598357254929126e-37,-0.6582519458533492,0.7675117652103582,1.5146734260870628e-34,0,70,255.0,255.0,255.0
463,23.150000000000002,6.359299734047362,-11.48279713636294,-10.0,-3.005370668956541,-1.9770841933621275,6.384694588480958e-36,-0.6428208365471314,0.7756713899819342,7.352701191081236e-35,0,70,255.0,255.0,255.0
464,23.200000000000003,6.2082341041827265,-11.580678356949916,-10.0,-3.0371259330512426,-1.9380966332437408,8.112536916574257e-36,-0.6273897272409135,0.7838310147535101,-4.413318787081519e-36,0,70,255.0,255.0,255.0
465,23.25,6.0556,-11.6766,-10.0,-3.068109641680631,-1.8987010918867782,5.9433627097731005e-36,-0.6119586179346896,0.791990639525082,-8.235364948496985e-35,0,70,255.0,255.0,255.0
466,23.3,5.901434778581393,-11.770542461771043,-10.0,-3.09839503630667,-1.8589452884769864,2.3477814526263403e-36,-0.599457167106844,0.7982414968665638,-6.146960080089852e-35,0,70,255.0,255.0,255.0
467,23.35,5.745770914245019,-11.862489319799916,-10.0,-3.1280553583913164,-1.8188769422001207,-2.0359737031683886e-37,-0.5869557162789985,0.8044923542080455,-4.05855521168272e-35,0,70,255.0,255.0,255.0
468,23.400000000000002,5.588639660617947,-11.952424946943273,-10.0,-3.1570906079345704,-1.7784960530561806,-1.710773759056438e-36,-0.5744542654511529,0.8107432115495274,-1.9701503432755881e-35,0,70,255.0,255.0,255.0
469,23.450000000000003,5.430072271327246,-12.040333716057754,-10.0,-3.1855007849364325,-1.7378026210451667,-2.1737477135924537e-36,-0.5619528146233073,0.8169940688910092,1.1825452513154445e-36,0,70,255.0,255.0,255.0
470,23.5,5.2701,-12.1262,-10.0,-3.2132858893969,-1.6967966461670814,-1.5925192339249703e-36,-0.5494513637954554,0.8232449262324959,2.2066593935385274e-35,0,70,255.0,255.0,255.0
471,23.55,5.108755225945151,-12.210008594089791,-10.0,-3.240378380402113,-1.6555034762088932,-6.290861381154776e-37,-0.5342482764130634,0.8284818720950039,1.6470729896993888e-35,0,70,255.0,255.0,255.0
472,23.6,4.94607483119927,-12.29174598349934,-10.0,-3.2667107170382073,-1.6139484589575799,5.455375577444177e-38,-0.5190451890306714,0.833718817957512,1.0874865858602502e-35,0,70,255.0,255.0,255.0
473,23.650000000000002,4.782096823480811,-12.371399075864,-10.0,-3.292282899305181,-1.5721315944131409,4.584004477447879e-37,-0.5038421016482794,0.83895576382002,5.279001820211116e-36,0,70,255.0,255.0,255.0
474,23.700000000000003,4.616859210508232,-12.448954778819104,-10.0,-3.3170949272030357,-1.5300528825755766,5.824539377955608e-37,-0.4886390142658874,0.8441927096825281,-3.1686221818026947e-37,0,70,255.0,255.0,255.0
475,23.75,4.4504,-12.5244,-10.0,-3.3411468007317695,-1.4877123234448897,4.267142259267814e-37,-0.4734359268835,0.8494296555450411,-5.91272625657126e-36,0,70,255.0,255.0,255.0
476,23.8,4.282756317637989,-12.59772076186981,-10.0,-3.36449144208488,-1.445056806687426,1.6856309983557045e-37,-0.46034972724090917,0.8567910147534747,-4.413318787077033e-36,0,70,255.0,255.0,255.0
477,23.85,4.113961760957877,-12.668899546202736,-10.0,-3.387181773455861,-1.402033221969541,-1.4617652780928123e-38,-0.44726352759831833,0.8641523739619084,-2.9139113175828065e-36,0,70,255.0,255.0,255.0
478,23.900000000000002,3.9440490454587676,-12.737917949600762,-10.0,-3.409217794844712,-1.3586415692912341,-1.2282803192271431e-37,-0.4341773279557275,0.871513733170342,-1.4145038480885799e-36,0,70,255.0,255.0,255.0
479,23.950000000000003,3.7730508866397687,-12.804757568665856,-10.0,-3.4305995062514345,-1.3148818486525056,-1.560680375897881e-37,-0.4210911283131366,0.8788750923787757,8.490362140564672e-38,0,70,255.0,255.0,255.0
480,24.0,3.601,-12.8694,-10.0,-3.4513269076760253,-1.2707540600533584,-1.1433766978215536e-37,-0.4080049286705325,0.8862364515872052,1.5843110908997657e-36,0,70,255.0,255.0,255.0
481,24.05,3.4279299035028776,-12.931827558430976,-10.0,-3.471351851258371,-1.2263012970414027,-4.5166261226804075e-38,-0.39299281462329155,0.8918740688910056,1.1825452513142461e-36,0,70,255.0,255.0,255.0
482,24.1,3.253877324969197,-12.992025431689722,-10.0,-3.490626189138355,-1.1815666531642568,3.916855349270938e-39,-0.3779807005760506,0.8975116861948061,7.807794117287267e-37,0,70,255.0,255.0,255.0
483,24.150000000000002,3.0788797946840765,-13.049979525732983,-10.0,-3.5091499213159767,-1.1365501284219206,3.2911679946069694e-38,-0.36296858652880964,0.9031493034986066,3.790135721432072e-37,0,70,255.0,255.0,255.0
484,24.200000000000003,2.902974842932634,-13.105675746517496,-10.0,-3.5269230477912363,-1.0912517228143948,4.1818212563592184e-38,-0.3479564724815687,0.908786920802407,-2.2752267442312406e-38,0,70,255.0,255.0,255.0
485,24.25,2.7262,-13.1591,-10.0,-3.543945568564133,-1.045671436341682,3.0636453201839967e-38,-0.3329443584343146,0.9144245381062017,-4.245181070278033e-37,0,70,255.0,255.0,255.0
486,24.3,2.548592068350485,-13.210237804406296,-10.0,-3.5602611528816386,-0.9997860051469623,1.210194507164583e-38,-0.3196790142658861,0.9209927096825553,-3.1686221817995166e-37,0,70,255.0,255.0,255.0
487,24.35,2.3701849391653047,-13.259073127038384,-10.0,-3.575913469990722,-0.9535721653734252,-1.049768616155647e-39,-0.30641367009745757,0.9275608812589089,-2.0920632933210003e-37,0,70,255.0,255.0,255.0
488,24.400000000000002,2.1910117758048813,-13.305589547467326,-10.0,-3.5909025198913844,-0.9070299170210702,-8.818687861564463e-39,-0.293148325929029,0.9341290528352626,-1.0155044048424836e-37,0,70,255.0,255.0,255.0
489,24.450000000000003,2.0111057416296347,-13.34977064526418,-10.0,-3.6052283025836256,-0.8601592600898975,-1.1204812664580621e-38,-0.2798829817606005,0.9406972244116162,6.105448363603235e-39,0,70,255.0,255.0,255.0
490,24.5,1.8305,-13.3916,-10.0,-3.618890818067444,-0.8129601945799105,-8.208143025204525e-39,-0.2666176375921907,0.9472653959879676,1.1376133721144729e-37,0,70,255.0,255.0,255.0
491,24.55,1.649228223095168,-13.431061223943848,-10.0,-3.6318595372150773,-0.7654346823707414,-3.241519059779267e-39,-0.2521311283131451,0.9537550923787703,8.490362140556023e-38,0,70,255.0,255.0,255.0
492,24.6,1.467326118369553,-13.46813806015675,-10.0,-3.644103930898759,-0.7175846853420322,2.8221911535161832e-40,-0.23764461903409953,0.960244788769573,5.604590559967317e-38,0,70,255.0,255.0,255.0
493,24.650000000000002,1.2848299020963527,-13.502814284397727,-10.0,-3.655623999118488,-0.6694102034937828,2.363071500188129e-39,-0.22315810975505396,0.9667344851603757,2.7188189793786113e-38,0,70,255.0,255.0,255.0
494,24.700000000000003,1.1017757905487646,-13.535073672425805,-10.0,-3.6664197418742646,-0.6209112368259931,3.001038094730266e-39,-0.20867160047600836,0.9732241815511785,-1.6695260121009527e-39,0,70,255.0,255.0,255.0
495,24.75,0.9182,-13.5649,-10.0,-3.6764911591660887,-0.572087785338667,2.1961188989781394e-39,-0.19418509119696026,0.979713877941979,-3.052724181798597e-38,0,70,255.0,255.0,255.0
496,24.8,0.7341382392688283,-13.592277299818313,-10.0,-3.685868698258052,-0.522955265370057,8.641311674712374e-40,-0.1809164724815579,0.9855869208023958,-2.2752267442289348e-38,0,70,255.0,255.0,255.0
497,24.85,0.5496241873564524,-13.617190632334623,-10.0,-3.6945828064142447,-0.473529093258426,-7.910784525082787e-41,-0.16764785376615554,0.9914599636628127,-1.4977293066592722e-38,0,70,255.0,255.0,255.0
498,24.900000000000002,0.36469101580966123,-13.639625314941773,-10.0,-3.7026334836346675,-0.42380926900377425,-6.3359813918805625e-40,-0.15437923505075318,0.9973330065232295,-7.202318690896098e-39,0,70,255.0,255.0,255.0
499,24.950000000000003,0.17937189617524327,-13.659566665032617,-10.0,-3.71002072991932,-0.37379579260610163,-7.99339714340448e-40,-0.14111061633535082,1.0032060493836465,5.726556848005286e-40,0,70,255.0,255.0,255.0
500,25.0,-0.0063,-13.677,-10.0,-3.716744545268203,-0.3234886640654117,-5.763325707080323e-40,-0.12784199761993165,1.0090790922440638,8.347630060496595e-39,0,70,255.0,255.0,255.0
501,25.05,-0.1922907801704963,-13.691910376782895,-10.0,-3.722761669752716,-0.27287225614901994,-2.1500561010568323e-40,-0.11284298176059884,1.0155772244115775,6.105448363597161e-39,0,70,255.0,255.0,255.0
502,25.1,-0.37856366779539413,-13.704281810504764,-10.0,-3.728028843444263,-0.2219309416242525,3.421226565169256e-41,-0.09784396590126604,1.0220753565790912,3.863266666697727e-39,0,70,255.0,255.0,255.0
503,25.150000000000002,-0.565081165335045,-13.71409805583518,-10.0,-3.732546066342843,-0.1706647204911094,1.7132105656409488e-40,-0.08284495004193324,1.0285734887466051,1.621084969798293e-39,0,70,255.0,255.0,255.0
504,25.200000000000003,-0.751805775249801,-13.721342867443735,-10.0,-3.7363133384484564,-0.11907359274959053,1.963207626315244e-40,-0.06784593418260045,1.0350716209141189,-6.210967271011407e-40,0,70,255.0,255.0,255.0
505,25.25,-0.9387,-13.726,-10.0,-3.739330659761103,-0.06715755839969971,1.0921138385399028e-40,-0.0528469183232545,1.0415697530816326,-2.8632784240004138e-39,0,70,255.0,255.0,255.0
506,25.3,-1.1257271185868587,-13.728053193050105,-10.0,-3.7416446227310844,-0.014915710033877108,-4.1087270485042196e-42,-0.039711600476009135,1.0481041815512417,-1.6695260120993018e-39,0,70,255.0,255.0,255.0
507,25.35,-1.3128535161749078,-13.72748612564633,-10.0,-3.7433018198087042,0.037652859755425955,-5.774121735594227e-41,-0.026576282628763773,1.054638610020851,-4.757736001981898e-40,0,70,255.0,255.0,255.0
508,25.400000000000002,-1.5000463544695284,-13.724282461717504,-10.0,-3.744302250993961,0.09054815096820946,-5.168608706832393e-41,-0.013440964781518412,1.0611730384904599,7.1797881170292225e-40,0,70,255.0,255.0,255.0
509,25.450000000000003,-1.687272795176103,-13.718425865192453,-10.0,-3.7446459162868555,0.14377016360447348,1.4056663814350965e-41,-0.0003056469342730475,1.067707466960069,1.9117312236040343e-39,0,70,255.0,255.0,255.0
510,25.5,-1.8745,-13.7099,-10.0,-3.744332815687388,0.19731889766421404,1.394870352920712e-40,0.012829670912999802,1.0742418954296762,3.105483635505061e-39,0,70,255.0,255.0,255.0
511,25.55,-2.0616935454820844,-13.698688851016687,-10.0,-3.743267839322946,0.25117509628454765,2.314405182997002e-40,0.029769383664664657,1.0800060493836379,5.726556848000467e-40,0,70,255.0,255.0,255.0
512,25.6,-2.248812667505007,-13.684777686909914,-10.0,-3.7413558773209212,0.30531950260257934,1.9675260377207667e-40,0.04670909641632951,1.0857702033375993,-1.9601722659049674e-39,0,70,255.0,255.0,255.0
513,25.650000000000002,-2.4358150167868886,-13.6681520972948,-10.0,-3.7385969296813135,0.35975211661830914,3.542329170920058e-41,0.06364880916799437,1.091534357291561,-4.493000216609981e-39,0,70,255.0,255.0,255.0
514,25.700000000000003,-2.6226582440458506,-13.648797671786456,-10.0,-3.734990996404122,0.414472938331737,-2.5254741788892792e-40,0.08058852191965922,1.0972985112455225,-7.025828167314996e-39,0,70,255.0,255.0,255.0
515,25.75,-2.8093,-13.6267,-10.0,-3.730538077489348,0.46948196774285905,-6.67159525022275e-40,0.09752823467130511,1.1030626651994822,-9.55865611801983e-39,0,70,255.0,255.0,255.0
516,25.8,-2.99569389948482,-13.601853002883141,-10.0,-3.7249960199771306,0.5242793248956984,-9.216533461502964e-40,0.12415406581739427,1.088831620914061,-6.210967271008836e-40,0,70,255.0,255.0,255.0
517,25.85,-3.1817774138050963,-13.574283926714001,-10.0,-3.7181226709076083,0.5783651298342667,-7.292691977323643e-40,0.15077989696348343,1.0746005766286397,8.316462663818062e-39,0,70,255.0,255.0,255.0
518,25.900000000000002,-3.3674839783829644,-13.544028349103286,-10.0,-3.709918030280782,0.6317393825585639,-9.000707976847839e-41,0.1774057281095726,1.0603695323432185,1.7254022054737007e-38,0,70,255.0,255.0,255.0
519,25.950000000000003,-3.552747028640558,-13.511121847661714,-10.0,-3.7003820980966506,0.68440208306859,9.961330077413612e-40,0.20403155925566177,1.0461384880577973,2.6191581445655956e-38,0,70,255.0,255.0,255.0
520,26.0,-3.7375,-13.4756,-10.0,-3.689514874355216,0.7363532313643415,2.529151064797029e-39,0.23065739040176325,1.0319074437723774,3.512914083657425e-38,0,70,255.0,255.0,255.0
521,26.05,-3.921685256578651,-13.437495137450739,-10.0,-3.6778520807685284,0.7877876041326541,3.455172866301486e-39,0.23585435306573793,1.0254674669600983,1.9117312236034914e-39,0,70,255.0,255.0,255.0
522,26.1,-4.105280877274637,-13.396826606234077,-10.0,-3.665929439048642,0.8388999780603528,2.7203241871573803e-39,0.2410513157297126,1.0190274901478191,-3.130567838936727e-38,0,70,255.0,255.0,255.0
523,26.150000000000002,-4.2882738696813005,-13.353610506292046,-10.0,-3.653746949195557,0.8896903531474375,3.2460502736471398e-40,0.2462482783936873,1.0125875133355402,-6.452308800233802e-38,0,70,255.0,255.0,255.0
524,26.200000000000003,-4.4706512413919794,-13.307862937566675,-10.0,-3.641304611209273,0.9401587293939082,-3.7319846130765145e-39,0.251445241057662,1.006147536523261,-9.774049761530879e-38,0,70,255.0,255.0,255.0
525,26.25,-4.6524,-13.2596,-10.0,-3.6286024250897913,0.9903051067997615,-9.44944473416584e-39,0.25664220372164337,0.9997075597109824,-1.3095790722827717e-37,0,70,255.0,255.0,255.0
526,26.3,-4.833504274200591,-13.2088392473139,-10.0,-3.6154676569487587,1.040042258573676,-1.2899038119055643e-38,0.2687485219196498,0.9897785112455675,-7.025828167313075e-39,0,70,255.0,255.0,255.0
527,26.35,-5.013936677096383,-13.155604048349687,-10.0,-3.6017275728978255,1.0892829579243195,-1.0152027550897157e-38,0.2808548401176562,0.9798494627801525,1.1690625089365102e-37,0,70,255.0,255.0,255.0
528,26.400000000000002,-5.19366694289188,-13.099919225728522,-10.0,-3.587382172936993,1.1380272048516926,-1.2084130296903733e-39,0.2929611583156626,0.9699204143147376,2.408383299546151e-37,0,70,255.0,255.0,255.0
529,26.450000000000003,-5.372664805791589,-13.04180960207157,-10.0,-3.5724314570662594,1.1862749993557946,1.3931805444564698e-38,0.30506747651366906,0.9599913658493227,3.6477040901557923e-37,0,70,255.0,255.0,255.0
530,26.5,-5.5509,-12.9813,-10.0,-3.5568754252856265,1.2340263414366228,3.526862787186633e-38,0.31717379471168883,0.9500623173839049,4.887024880765344e-37,0,70,255.0,255.0,255.0
531,26.55,-5.7283432466190005,-12.918415073293657,-10.0,-3.540773291436442,1.2812913615726653,4.814097960992109e-38,0.3269115592556824,0.9405384880577702,2.6191581445648815e-38,0,70,255.0,255.0,255.0
532,26.6,-5.904969214339863,-12.85317880036717,-10.0,-3.524184269360058,1.3280801902424013,3.788778601643125e-38,0.33664932379967594,0.9310146587316355,-4.363193251852368e-37,0,70,255.0,255.0,255.0
533,26.650000000000002,-6.0807535587512245,-12.785614990793853,-10.0,-3.507108359056474,1.3743928274458304,4.5090470913967804e-39,0.3463870883436695,0.9214908294055006,-8.988302318161223e-37,0,70,255.0,255.0,255.0
534,26.700000000000003,-6.255671935441729,-12.71574745414702,-10.0,-3.4895455605256904,1.4202292731829527,-5.199523716518227e-38,0.35612485288766305,0.9119670000793659,-1.3613411384470081e-36,0,70,255.0,255.0,255.0
535,26.75,-6.4297,-12.6436,-10.0,-3.471495873767709,1.465589527453765,-1.3162506675329947e-37,0.3658626174316524,0.9024431707532283,-1.823852045077861e-36,0,70,255.0,255.0,255.0
536,26.8,-6.6028131393234215,-12.569195659511463,-10.0,-3.4529431773054755,1.5105202951356764,-1.7966488032062872e-37,0.3762452410576786,0.8947875365232131,-9.774049761528241e-38,0,70,255.0,255.0,255.0
537,26.85,-6.774985665544198,-12.49255435018162,-10.0,-3.4338713496619406,1.5550682811060876,-1.4139911651482781e-37,0.38662786468370486,0.8871319022931979,1.628371049847296e-36,0,70,255.0,255.0,255.0
538,26.900000000000002,-6.946191622103266,-12.413695211096044,-10.0,-3.414280390837104,1.5992334853649977,-1.6827775335896832e-38,0.39701048830973107,0.8794762680631827,3.3544825973098744e-36,0,70,255.0,255.0,255.0
539,26.950000000000003,-7.116405052441558,-12.33263738134031,-10.0,-3.3941703008309667,1.643015907912407,1.9404914321616447e-37,0.40739311193575733,0.8718206338331675,5.080594144772453e-36,0,70,255.0,255.0,255.0
540,27.0,-7.2856,-12.2494,-10.0,-3.373541079643529,1.6864155487483123,4.9123163914133155e-37,0.4177757355617935,0.864164999603144,6.806705692234908e-36,0,70,255.0,255.0,255.0
541,27.05,-7.453750596087329,-12.164003088660476,-10.0,-3.352397999341642,1.7293794578846255,6.705185416725938e-37,0.4279474765136635,0.8543913658493614,3.6477040901547942e-37,0,70,255.0,255.0,255.0
542,27.1,-7.620831323483375,-12.076470198906328,-10.0,-3.3307463319921617,1.7718546853332497,5.2770868004288e-37,0.4381192174655335,0.8446177320955788,-6.077164874203949e-36,0,70,255.0,255.0,255.0
543,27.150000000000002,-7.786816752835757,-11.986825764821944,-10.0,-3.308586077595088,1.8138412310941847,6.28020542521903e-38,0.4482909584174036,0.8348440983417962,-1.2519100157423376e-35,0,70,255.0,255.0,255.0
544,27.200000000000003,-7.951681454792096,-11.895094220491703,-10.0,-3.2859172361504214,1.8553390951674305,-7.242013356994751e-37,0.4584626993692736,0.8250704645880136,-1.8961035440642805e-35,0,70,255.0,255.0,255.0
545,27.25,-8.1154,-11.8013,-10.0,-3.262739807658162,1.8963482775529843,-1.8333014898120266e-36,0.4686344403211642,0.8152968308342246,-2.540297072386177e-35,0,70,255.0,255.0,255.0
546,27.3,-8.277946876327272,-11.70546718584662,-10.0,-3.2390488253279424,1.9368898733258249,-2.502409286369746e-36,0.47900485288761785,0.8063670000793712,-1.3613411384466373e-36,0,70,255.0,255.0,255.0
547,27.35,-8.439296240522326,-11.607618454193044,-10.0,-3.2148393223693996,1.9769849775609225,-1.9694356036566925e-36,0.4893752654540715,0.7974371693245179,2.2680288446968495e-35,0,70,255.0,255.0,255.0
548,27.400000000000002,-8.599422166553744,-11.507776129616154,-10.0,-3.1901112987825346,2.016633590258278,-2.343804416728637e-37,0.4997456780205252,0.7885073385696646,4.6721918032383625e-35,0,70,255.0,255.0,255.0
549,27.450000000000003,-8.75829872839011,-11.40596253669284,-10.0,-3.164864754567346,2.05583571141789,2.702756199581737e-36,0.5101160905869788,0.7795775078148113,7.076354761779876e-35,0,70,255.0,255.0,255.0
550,27.5,-8.9159,-11.3022,-10.0,-3.139099689723837,2.094591341039757,6.841974320106775e-36,0.5204865031534496,0.7706476770599444,9.480517720321219e-35,0,70,255.0,255.0,255.0
551,27.55,-9.072200298603594,-11.196510567953029,-10.0,-3.112830699346605,2.132917048812085,9.339118603806393e-36,0.5302731119358186,0.7623806338331411,5.080594144771082e-36,0,70,255.0,255.0,255.0
552,27.6,-9.227174914427346,-11.088915184321477,-10.0,-3.0860723785302544,2.1708294044230727,7.35003373458389e-36,0.5400597207181878,0.7541135906063379,-8.464398891367002e-35,0,70,255.0,255.0,255.0
553,27.650000000000002,-9.380799380949304,-10.979434516713408,-10.0,-3.0588247272747853,2.20832840787272,8.747197124392698e-37,0.5498463295005568,0.7458465473795346,-1.7436857197211114e-34,0,70,255.0,255.0,255.0
554,27.700000000000003,-9.533049231647512,-10.86808923273689,-10.0,-3.031087745580198,2.245414059161027,-1.0086823462627468e-35,0.5596329382829259,0.7375795041527314,-2.6409315503055223e-34,0,70,255.0,255.0,255.0
555,27.75,-9.6839,-10.7549,-10.0,-3.0028614334464945,2.282086358287991,-2.5534595790615073e-35,0.5694195470652836,0.7293124609259252,-3.53817738088987e-34,0,70,255.0,255.0,255.0
556,27.8,-9.833326329258368,-10.639888142341247,-10.0,-2.97409237728563,2.3183059314258396,-3.4854065128855827e-35,0.5813426993692795,0.7194704645879879,-1.8961035440637724e-35,0,70,255.0,255.0,255.0
557,27.85,-9.981299301768313,-10.523077608521028,-10.0,-2.9447271635095658,2.3540334047467906,-2.743069933467888e-35,0.5932658516732754,0.7096284682500508,3.1589566720771154e-34,0,70,255.0,255.0,255.0
558,27.900000000000002,-10.127789109649076,-10.404493003530181,-10.0,-2.9147657921183017,2.3892687782508455,-3.264498408084213e-36,0.6051890039772713,0.6997864719121135,6.5075236985606085e-34,0,70,255.0,255.0,255.0
559,27.950000000000003,-10.272765945019893,-10.284158932359553,-10.0,-2.8842082631118378,2.424012051938003,3.764453765092813e-35,0.6171121562812671,0.6899444755741763,9.856090725044101e-34,0,70,255.0,255.0,255.0
560,28.0,-10.4162,-10.1621,-10.0,-2.853054576490176,2.458263225808261,9.529640884235351e-35,0.6290353085852658,0.6801024792362291,1.3204657751527353e-33,0,70,255.0,255.0,255.0
561,28.05,-10.558063184362943,-10.038340062681966,-10.0,-2.8214077915108704,2.4920672254845386,1.3007714191161688e-34,0.6368360905869325,0.6720575078148505,7.076354761777929e-35,0,70,255.0,255.0,255.0
562,28.1,-10.698334278499424,-9.912899981594395,-10.0,-2.789370967431482,2.5254689765897473,1.0237276360413154e-34,0.6446368725885991,0.6640125363934719,-1.1789386799171767e-33,0,70,255.0,255.0,255.0
563,28.150000000000002,-10.83699378045443,-9.785799869165839,-10.0,-2.7569441042520095,2.5584684791238868,1.2183273919897528e-35,0.6524376545902658,0.6559675649720933,-2.4286409074521325e-33,0,70,255.0,255.0,255.0
564,28.200000000000003,-10.97402218827296,-9.657059837824853,-10.0,-2.724127201972454,2.5910657330869578,-1.4049132714108522e-34,0.6602384365919325,0.6479225935507148,-3.678343134987088e-33,0,70,255.0,255.0,255.0
565,28.25,-11.1094,-9.5267,-10.0,-2.690920260592818,2.6232607384789564,-3.5565103957879896e-34,0.6680392185935737,0.6398776221293332,-4.928045362521955e-33,0,70,255.0,255.0,255.0
566,28.3,-11.243105733289864,-9.39474120693088,-10.0,-2.6572044566709043,2.6550091666360087,-4.854545025176117e-34,0.6805929382829697,0.6300595041527428,-2.6409315503048034e-34,0,70,255.0,255.0,255.0
567,28.35,-11.37510998423402,-9.261207265101376,-10.0,-2.62286096676452,2.6862666888942313,-3.820603550818474e-34,0.6931466579723657,0.6202413861761525,4.399859052460994e-33,0,70,255.0,255.0,255.0
568,28.400000000000002,-11.505381368533246,-9.126122719806432,-10.0,-2.5878897908736667,2.717033305253625,-4.5468597271505867e-35,0.7057003776617619,0.6104232681995622,9.063811259952469e-33,0,70,255.0,255.0,255.0
569,28.450000000000003,-11.633888501888318,-8.989512116340991,-10.0,-2.552290928998343,2.7473090157141886,5.243207709134124e-34,0.7182540973511579,0.6006051502229718,1.3727763467443943e-32,0,70,255.0,255.0,255.0
570,28.5,-11.7606,-8.8514,-10.0,-2.516064381138553,2.777093820275921,1.3273077494728424e-33,0.7308078170405494,0.5907870322463928,1.8391715674935083e-32,0,70,255.0,255.0,255.0
571,28.55,-11.885485882477612,-8.711810309594508,-10.0,-2.479294381805507,2.806424107971435,1.81174086815883e-33,0.7399921562812624,0.5824244755741509,9.856090725041419e-34,0,70,255.0,255.0,255.0
572,28.6,-12.00852178456452,-8.570764558000079,-10.0,-2.4420651655104253,2.835336267833337,1.4258686567232582e-33,0.7491764955219753,0.574061918901909,-1.64204975299268e-32,0,70,255.0,255.0,255.0
573,28.650000000000002,-12.129684745412625,-8.428283651608396,-10.0,-2.4043767322533087,2.8638302998616267,1.6969111516612603e-34,0.7583608347626882,0.5656993622296671,-3.3826604132357743e-32,0,70,255.0,255.0,255.0
574,28.700000000000003,-12.24895180417382,-8.28438849681114,-10.0,-2.3662290820341556,2.8919062040563044,-1.9567917565125635e-33,0.7675451740034012,0.5573368055574252,-5.123271073478868e-32,0,70,255.0,255.0,255.0
575,28.75,-12.3663,-8.1391,-10.0,-2.3276222148529695,2.9195639804173688,-4.95357995831257e-33,0.7767295132441241,0.5489742488851874,-6.863881733721837e-32,0,70,255.0,255.0,255.0
576,28.8,-12.4817059367997,-7.992439954691078,-10.0,-2.2885300161070683,2.946750401478266,-6.761508970117707e-33,0.7869584365919005,0.5384825935506908,-3.6783431349860784e-33,0,70,255.0,255.0,255.0
577,28.85,-12.59514447750792,-7.8444337028982805,-10.0,-2.2489263711937784,2.9734122397724385,-5.321414271811184e-33,0.7971873599396768,0.5279909382161944,6.128213106724621e-32,0,70,255.0,255.0,255.0
578,28.900000000000002,-12.70659004981629,-7.6951074737599425,-10.0,-2.2088112801130992,2.999549495299886,-6.332958633929991e-34,0.8074162832874532,0.5174992828816978,1.2624260526947848e-31,0,70,255.0,255.0,255.0
579,28.950000000000003,-12.816017081416446,-7.5444874964144,-10.0,-2.168184742865032,3.025162168060609,7.302846255136845e-33,0.8176452066352295,0.5070076275472013,1.9120307947171078e-31,0,70,255.0,255.0,255.0
580,29.0,-12.9234,-7.3926,-10.0,-2.1270467594495788,3.0502502580546054,1.8487012083777437e-32,0.8278741299830088,0.4965159722127055,2.561635536739384e-31,0,70,255.0,255.0,255.0
581,29.05,-13.0287191703236,-7.239475471641164,-10.0,-2.0857535537662235,3.074558286115498,2.5234295012312e-32,0.8238540973511816,0.47580515022297876,1.3727763467440196e-32,0,70,255.0,255.0,255.0
