idx,t,px,py,pz,vx,vy,vz,ax,ay,az,yaw,mode,ledr,ledg,ledb
0,0.0,1.5,1.5,-0.008,-1.0864688047975266e-08,-7.798532357520994e-09,0.7235077059043329,1.303762565757032e-07,9.358238829025193e-08,-18.056492470851992,0,70,255.0,255.0,255.0
1,0.05,1.4999999996088713,1.499999999719253,0.006368677412555986,-4.997756502068621e-09,-3.587324884459657e-09,-0.13348245528400676,1.0430100526056256e-07,7.486591063220155e-08,-16.223113976681592,0,70,255.0,255.0,255.0
2,0.1,1.4999999994784947,1.4999999996256703,-0.019820430116592024,-4.3458752191900894e-10,-3.119412943008394e-10,-0.8988036917638265,7.822575394542192e-08,5.614943297415116e-08,-14.389735482511195,0,70,255.0,255.0,255.0
3,0.15000000000000002,1.499999999543683,1.4999999996724616,-0.08198387635201802,2.824818892473571e-09,2.027618412955459e-09,-1.5724560035351265,5.2150502630281274e-08,3.743295531610077e-08,-12.556356988340795,0,70,255.0,255.0,255.0
4,0.2,1.4999999997392475,1.4999999998128353,-0.175538215058296,4.7804627411091186e-09,3.431354237309237e-09,-2.154439390597906,2.607525131514063e-08,1.8716477658050384e-08,-10.722978494170397,0,70,255.0,255.0,255.0
5,0.25,1.5,1.5,-0.2959,5.432344023987633e-09,3.899266178760497e-09,-2.6447538529521664,0.0,0.0,-8.889600000000002,0,70,255.0,255.0,255.0
6,0.30000000000000004,1.5000000002607525,1.500000000187165,-0.4384857849417041,4.780462741109116e-09,3.4313542373092365e-09,-3.043399390597907,-2.6075251315140664e-08,-1.8716477658050404e-08,-7.0562215058295985,0,70,255.0,255.0,255.0
7,0.35000000000000003,1.5000000004563168,1.5000000003275382,-0.5987121236479821,2.824818892473567e-09,2.027618412955457e-09,-3.3503760035351267,-5.21505026302813e-08,-3.743295531610079e-08,-5.222843011659198,0,70,255.0,255.0,255.0
8,0.4,1.5000000005215048,1.5000000003743295,-0.7719955698834081,-4.3458752191901266e-10,-3.1194129430084145e-10,-3.5656836917638266,-7.822575394542193e-08,-5.6149432974151166e-08,-3.389464517488798,0,70,255.0,255.0,255.0
9,0.45,1.500000000391129,1.5000000002807472,-0.9537526774125561,-4.997756502068626e-09,-3.5873248844596597e-09,-3.6893224552840067,-1.0430100526056257e-07,-7.486591063220155e-08,-1.5560860233183966,0,70,255.0,255.0,255.0
10,0.5,1.5,1.5,-1.1394,-1.0864688047975266e-08,-7.798532357520994e-09,-3.7212922940956665,-1.303762565757032e-07,-9.358238829025192e-08,0.27729247085199304,0,70,255.0,255.0,255.0
11,0.55,1.4999999993481188,1.499999999532088,-1.3252967376457403,-1.4124094462367848e-08,-1.0138092064777292e-08,-3.718151982324367,1.0587911840678754e-22,7.940933880509066e-23,-0.15168000000000714,0,70,255.0,255.0,255.0
12,0.6000000000000001,1.4999999986962373,1.4999999990641761,-1.5115726752914804,-1.0864688047975254e-08,-7.798532357520986e-09,-3.7364602940956675,1.3037625657570342e-07,9.358238829025208e-08,-0.5806524708520073,0,70,255.0,255.0,255.0
13,0.65,1.4999999983702967,1.4999999988302202,-1.6993002441143499,-1.0864688047975197e-09,-7.798532357520966e-10,-3.7762172294095677,2.6075251315140646e-07,1.8716477658050387e-07,-1.0096249417040064,0,70,255.0,255.0,255.0
14,0.7000000000000001,1.4999999986962376,1.4999999990641764,-1.8895518752914802,1.52105632671654e-08,1.0917945300529412e-08,-3.837422788266068,3.9112876972710983e-07,2.807471648707559e-07,-1.4385974125560066,0,70,255.0,255.0,255.0
15,0.75,1.5,1.5,-2.0834,3.802640816791343e-08,2.7294863251323477e-08,-3.9200769706651677,5.21505026302813e-07,3.7432955316100774e-07,-1.867569883407981,0,70,255.0,255.0,255.0
16,0.8,1.5000000023467726,1.500000001684483,-2.282107264475336,5.171591510836228e-08,3.712101402179993e-08,-4.035592680104627,2.6075251315140366e-08,1.871647765805008e-08,-2.7530584941703844,0,70,255.0,255.0,255.0
17,0.8500000000000001,1.5000000047587334,1.5000000034157572,-2.4876971751860983,4.0633933299427464e-08,2.9166511017128487e-08,-4.195382820082207,-4.693545236725323e-07,-3.368965978449076e-07,-3.6385471049327878,0,70,255.0,255.0,255.0
18,0.9,1.500000005997308,1.5000000043047896,-2.702383453659192,4.78046274110911e-09,3.4313542373092237e-09,-4.3994473905979055,-9.64784298660204e-07,-6.925096733478643e-07,-4.524035715695189,0,70,255.0,255.0,255.0
19,0.9500000000000001,1.5000000048239217,1.5000000034625485,-2.9283798214215246,-5.584449656659297e-08,-4.008445631765798e-08,-4.647786391651725,-1.4602140736478768e-06,-1.048122748850822e-06,-5.409524326457593,0,70,255.0,255.0,255.0
20,1.0,1.5,1.5,-3.1679,-1.4124094462367848e-07,-1.0138092064777292e-07,-4.940399823243665,-1.9556438486355477e-06,-1.4037358243537791e-06,-6.295012937219994,0,70,255.0,255.0,255.0
21,1.05,1.499999991264791,1.49999999372998,-3.422395804452916,-1.9273956597108127e-07,-1.3834596402242246e-07,-5.231573297257126,-1.0430100526056083e-07,-7.486591063220053e-08,-5.351926023318412,0,70,255.0,255.0,255.0
22,1.1,1.4999999822688288,1.499999987272795,-3.6902714239641283,-1.5167104514973458e-07,-1.0886751171099302e-07,-5.475592425575506,1.747041838114426e-06,1.254004003089378e-06,-4.40883910941683,0,70,255.0,255.0,255.0
23,1.1500000000000001,1.499999977640472,1.4999999839506204,-3.9691691412488823,-1.8035382159638498e-08,-1.294556371348451e-08,-5.672457208198808,3.598384681489413e-06,2.5828739168109567e-06,-3.4657521955152477,0,70,255.0,255.0,255.0
24,1.2000000000000002,1.4999999820080767,1.4999999870856304,-4.256731239022424,2.0816742299920703e-07,1.4941987997010287e-07,-5.822167645127031,5.4497275248644e-06,3.911743830532535e-06,-2.5226652816136657,0,70,255.0,255.0,255.0
25,1.25,1.5,1.5,-4.5506,5.269373703268005e-07,3.7822881933976823e-07,-5.924723736360175,7.301070368239382e-06,5.2406137442541075e-06,-1.5795783677120596,0,70,255.0,255.0,255.0
26,1.3,1.5000000325940641,1.500000023395597,-4.848603917713001,7.192423487759629e-07,5.162628420678898e-07,-5.991298130866876,3.911287697271041e-07,2.8074716487075083e-07,-1.0833974125559787,0,70,255.0,255.0,255.0
27,1.35,1.50000006616595,1.5000000474930621,-5.149316328957392,5.66050247299511e-07,4.063035358268433e-07,-6.033063477615772,-6.518812828785174e-06,-4.679119414512606e-06,-0.5872164573998978,0,70,255.0,255.0,255.0
28,1.4000000000000001,1.5000000834408043,1.5000000598927286,-5.4514967813452815,6.736106589744484e-08,4.835090061662878e-08,-6.050019776606866,-1.342875442729745e-05,-9.638985993895964e-06,-0.09103550224381696,0,70,255.0,255.0,255.0
29,1.4500000000000002,1.500000067143772,1.50000004819493,-5.753904822488782,-7.768251954302351e-07,-5.575950635627536e-07,-6.042167027840155,-2.033869602580973e-05,-1.459885257327932e-05,0.405145452912264,0,70,255.0,255.0,255.0
30,1.5,1.5,1.5,-6.0553,-1.9665085366835236e-06,-1.4115343567113e-06,-6.00950523131564,-2.7248637624321975e-05,-1.9558719152662657e-05,0.9013264080683498,0,70,255.0,255.0,255.0
31,1.55,1.4999998783589525,1.4999999126876318,-6.354407724695082,-2.68422982913277e-06,-1.9267054042491368e-06,-5.9499861792753705,-1.4602140736478562e-06,-1.048122748850805e-06,1.4794356735424192,0,70,255.0,255.0,255.0
32,1.6,1.49999975306737,1.4999998227549567,-6.649816860206309,-2.1125299440483096e-06,-1.5163466315963805e-06,-5.861561663961399,2.4328209477026262e-05,1.7462473654961047e-05,2.0575449390164886,0,70,255.0,255.0,255.0
33,1.6500000000000001,1.4999996885963112,1.4999997764784656,-6.9400821333699945,-2.514088814301413e-07,-1.8045803875303076e-07,-5.744231685373722,5.0116633027700374e-05,3.597307005877289e-05,2.6356542044905584,0,70,255.0,255.0,255.0
34,1.7000000000000002,1.4999997494168347,1.4999998201346496,-7.2237582710224535,2.899133358721732e-06,2.0809603742809122e-06,-5.597996243512342,7.59050565783745e-05,5.448366646258475e-05,3.213763469964628,0,70,255.0,255.0,255.0
35,1.75,1.5,1.5,-7.4994,7.339096776407294e-06,5.267908607505432e-06,-5.422855338377259,0.0001016934801290485,7.299426286639648e-05,3.7918727354387016,0,70,255.0,255.0,255.0
36,1.8,1.5000004539701253,1.500000325853876,-7.765510783506669,1.0017676967755117e-05,7.190558774928657e-06,-5.215733152031634,5.449727524864295e-06,3.911743830532457e-06,4.4930147183863,0,70,255.0,255.0,255.0
37,1.85,1.5000009215645695,1.5000006614871115,-8.020389030217373,7.884069528893727e-06,5.6590829905586784e-06,-4.973553866538628,-9.079402507931991e-05,-6.517077520533157e-05,5.194156701333899,0,70,255.0,255.0,255.0
38,1.9000000000000001,1.500001162173951,1.500000834193409,-8.262281885174744,9.382744598231176e-07,6.734812543954945e-07,-4.696317481898243,-0.00018703777768350413,-0.0001342532942411956,5.8952986842814985,0,70,255.0,255.0,255.0
39,1.9500000000000002,1.5000009351888883,1.500000671266471,-8.48943649342141,-1.0819708239456701e-05,-7.766246433560891e-06,-4.384023998110478,-0.00028328153028768835,-0.00020333581327705962,6.596440667229097,0,70,255.0,255.0,255.0
40,2.0,1.5,1.5,-8.7001,-2.738987856894565e-05,-1.9660100073310425e-05,-4.036673415175335,-0.00037952528289187206,-0.00027241833231292346,7.297582650176686,0,70,255.0,255.0,255.0
41,2.0500000000000003,1.4999983057605457,1.4999987838968643,-8.892870741278243,-3.73864780418877e-05,-2.68355296954655e-05,-3.6753372125981087,-2.0338696025807743e-05,-1.459885257327798e-05,7.155865452912301,0,70,255.0,255.0,255.0
42,2.1,1.4999965606743515,1.4999975312965972,-9.067751818924199,-2.942374817152659e-05,-2.111998533063834e-05,-3.3210868698841045,0.0003388478908402533,0.00024322062716636522,7.0141482556479176,0,70,255.0,255.0,255.0
43,2.15,1.4999956627078843,1.4999968867478974,-9.225097525931037,-3.501688957862473e-06,-2.513466978829054e-06,-2.97392238703332,0.0006980344777063144,0.0005010401069060085,6.872431058383533,0,70,255.0,255.0,255.0
44,2.2,1.4999965098276116,1.4999974947994654,-9.365262155291918,4.037969959910506e-05,2.8984025359962657e-05,-2.633843764045751,0.0010572210645723788,0.0007588595866456539,6.730713861119148,0,70,255.0,255.0,255.0
45,2.25,1.5,1.5,-9.4886,0.00010222041749937532,7.337249168573628e-05,-2.3008510009214036,0.0014164076514384394,0.001016679066385297,6.588996663854779,0,70,255.0,255.0,255.0
46,2.3000000000000003,1.5000063229876914,1.5000045385586673,-9.595583051380373,0.00013952823519979568,0.00010015156000693333,-1.9820059975759168,7.590505657836702e-05,5.448366646257949e-05,6.16480346996463,0,70,255.0,255.0,255.0
47,2.35,1.5000128357380242,1.500009213326501,-9.687154094085834,0.00010981092315721265,7.882085833199464e-05,-1.68437065392494,-0.0012645975382816932,-0.0009077117334601295,5.740610276074485,0,70,255.0,255.0,255.0
48,2.4000000000000004,1.5000161869945114,1.5000116188150006,-9.76437361110111,1.3068481371625589e-05,9.380386660919857e-06,-1.4079449699684679,-0.002605100133141766,-0.001869907133382847,5.316417082184336,0,70,255.0,255.0,255.0
49,2.45,1.5000130255006656,1.500009349535667,-9.828302085410922,-0.0001506990901569635,-0.00010816985500628975,-1.1527289457065055,-0.003945602728001826,-0.002832102533305556,4.8922238882941915,0,70,255.0,255.0,255.0
50,2.5,1.5,1.5,-9.88,-0.0003814917914285556,-0.00027382986666963467,-0.9187225811390505,-0.0052861053228618875,-0.003794297933228264,4.468030694404046,0,70,255.0,255.0,255.0
51,2.5500000000000003,1.4999764022886886,1.4999830618684666,-9.920575453200271,-0.000520726462757295,-0.00037377071033226777,-0.7087827970982218,-0.0002832815302876617,-0.00020333581327704013,3.929560667229056,0,70,255.0,255.0,255.0
52,2.6,1.4999520963735515,1.4999656153974,-9.95132700473247,-0.00040981994445732394,-0.0002941634479973403,-0.5257665144161443,0.004719542262286521,0.0033876263066741517,3.391090640054071,0,70,255.0,255.0,255.0
53,2.6500000000000004,1.49993958931407,1.4999566379921003,-9.973600829664534,-4.877223652864052e-05,-3.500807966485067e-05,-0.3696737330928147,0.009722366054860746,0.0069785884266253765,2.8526206128790808,0,70,255.0,255.0,255.0
54,2.7,1.4999513881697255,1.499965107057867,-9.988743103064396,0.0005624166610287494,0.0004036953946651963,-0.24050445312823573,0.01472518984743493,0.010569550546576567,2.3141505857040956,0,70,255.0,255.0,255.0
55,2.75,1.5,1.5,-9.9981,0.001423746748214847,0.0010219469749928023,-0.13825867452240598,0.01972801364000911,0.01416051266652776,1.7756805585291102,0,70,255.0,255.0,255.0
56,2.8000000000000003,1.5000880678575543,1.5000632139674661,-10.002975935818547,0.0019433776158293847,0.001394931281322138,-0.06043081403119763,0.0010572210645722786,0.00075885958664558,1.3374338611192071,0,70,255.0,255.0,255.0
57,2.85,1.5001787787677703,1.500128325083899,-10.004508286984295,0.0015294688546720837,0.0010978329336573665,-0.004515288410484937,-0.017613571510864387,-0.012642793493236482,0.8991871637093081,0,70,255.0,255.0,255.0
58,2.9000000000000004,1.5002254557492087,1.5001618292165988,-10.00379267024077,0.0001820204647429366,0.00013065193199848302,0.029487902339733044,-0.036284364086301216,-0.02604444657311866,0.460940466299405,0,70,255.0,255.0,255.0
59,2.95,1.5001814218204315,1.5001302222328656,-10.001924702331497,-0.0020989675539580333,-0.0015066117236544958,0.04157875821945581,-0.054955156661737885,-0.03944609965300072,0.022693768889505916,0,70,255.0,255.0,255.0
60,3.0,1.5,1.5,-10.0,-0.005313495201430833,-0.0038139580333015747,0.03175727922868368,-0.07362594923717455,-0.05284775273288278,-0.41555292852039294,0,70,255.0,255.0,255.0
61,3.0500000000000003,1.4996713262810941,1.4997640822616687,-9.998891203525542,-0.0072527840005602445,-0.005205954414956284,0.013402053223027802,-0.003945602728001457,-0.002832102533305292,-0.31865611170583835,0,70,255.0,255.0,255.0
62,3.1,1.4993327885553682,1.4995210842670041,-9.99857904733035,-0.005708055474231011,-0.004097168286632126,-0.00010833194190022072,0.065734743781171,0.04718354766627175,-0.2217592948912846,0,70,255.0,255.0,255.0
63,3.1500000000000004,1.4991585876890954,1.499396045141505,-9.998821289372389,-0.0006793096224431035,-0.00048759964832908315,-0.008773876266100631,0.1354150902903441,0.09719919786584924,-0.12486247807673001,0,70,255.0,255.0,255.0
64,3.2,1.4993229245485482,1.4995140040106707,-9.999375687609616,0.007833453554803381,0.0056227514999527845,-0.012594579749573273,0.20509543679951656,0.14721484806542628,-0.027965661262176256,0,70,255.0,255.0,255.0
65,3.25,1.5,1.5,-10.0,0.019830234057508483,0.014233885158213496,-0.011570442392318248,0.2747757833086891,0.19723049826500327,0.0689311555523775,0,70,255.0,255.0,255.0
66,3.3000000000000003,1.501422627018069,1.5010212569858592,-10.000519250079279,0.0388277583864117,0.027876886378503114,-0.009737398860906521,0.48512518984743536,0.3484895505465785,0.004390585704091177,0,70,255.0,255.0,255.0
67,3.35,1.5040580670107566,1.5029137378480848,-10.0010275236943,0.06834275304225197,0.049082840212871306,-0.011131383821909101,0.6954745963861798,0.4997486028281523,-0.06014998414419456,0,70,255.0,255.0,255.0
68,3.4000000000000004,1.50843219349441,1.5060555902173811,-10.001686172269677,0.10837521802502983,0.07785174666131844,-0.015752397275326013,0.905824002924926,0.6510076551097275,-0.12469055399248088,0,70,255.0,255.0,255.0
69,3.45,1.5150708799853754,1.5108249617244514,-10.002656547230037,0.15892515333474455,0.11418360572384403,-0.02360043922115717,1.1161734094636704,0.8022667073913013,-0.18923112384076662,0,70,255.0,255.0,255.0
70,3.5,1.5245,1.5176,-10.0041,0.2199925589713965,0.1580784174004483,-0.03467550965940261,1.3265228160024145,0.9535257596728761,-0.2537716936890523,0,70,255.0,255.0,255.0
71,3.5500000000000003,1.5371341656466295,1.5266788897948946,-10.006143796157339,0.28490175045491384,0.20473840890094538,-0.04693245777939153,1.269844843338265,0.9128739003469969,-0.236506231110502,0,70,255.0,255.0,255.0
72,3.6,1.5529429434016044,1.5380399643406566,-10.008778857892455,0.3469770433052231,0.2493658074351481,-0.058326132770452836,1.2131668706741159,0.8722220410211181,-0.21924076853195185,0,70,255.0,255.0,255.0
73,3.6500000000000004,1.571784638333265,1.5515815939889712,-10.011962021548902,0.4062184375223255,0.29196061300305726,-0.06885653463258673,1.1564888980099663,0.8315701816952389,-0.20197530595340157,0,70,255.0,255.0,255.0
74,3.7,1.5935175555099503,1.5672021490915238,-10.015650123470232,0.46262593310621986,0.3325228256046721,-0.07852366336579303,1.0998109253458175,0.7909183223693601,-0.18470984337485144,0,70,255.0,255.0,255.0
75,3.75,1.618,1.5848,-10.0198,0.5161995300569069,0.371052445239993,-0.08732751897007181,1.0431329526816704,0.7502664630434812,-0.1674443807963012,0,70,255.0,255.0,255.0
76,3.8000000000000003,1.6451175103954134,1.6042927838345633,-10.02437676529136,0.5685732397939367,0.4087054780177159,-0.09576477002153405,1.0518154367995134,0.7558548480654271,-0.1700456612621865,0,70,255.0,255.0,255.0
77,3.85,1.6748645593828253,1.62567520478929,-10.029378644735875,0.6213810737368584,0.44663793004653574,-0.10433208509629048,1.0604979209173564,0.761443233087373,-0.1726469417280718,0,70,255.0,255.0,255.0
78,3.9000000000000004,1.707262853172531,1.648961233826735,-10.03481214153471,0.6746230318856725,0.4848498013264533,-0.11302946419434123,1.0691804050351994,0.767031618109319,-0.1752482221939571,0,70,255.0,255.0,255.0
79,3.95,1.742334097974824,1.6741648419094535,-10.040683758889031,0.7282991142403783,0.5233410918574678,-0.12185690731568619,1.0778628891530424,0.7726200031312648,-0.17784950265984242,0,70,255.0,255.0,255.0
80,4.0,1.7801,1.7013,-10.047,0.7824093208009764,0.5621118016395795,-0.13081441446032543,1.0865453732708872,0.7782083881532129,-0.18045078312572693,0,70,255.0,255.0,255.0
81,4.05,1.8205749927717176,1.7303763748668528,-10.053765942677222,0.83651729036934,0.6009036790281922,-0.1398164621344866,1.0777734094636657,0.7734667073913007,-0.1796311238407202,0,70,255.0,255.0,255.0
82,4.1000000000000005,1.8637444190670953,1.7613864165021846,-10.060980963164045,0.8901866617473435,0.63945847237871,-0.14877752684439755,1.069001445656444,0.7687250266293885,-0.1788114645557134,0,70,255.0,255.0,255.0
83,4.15,1.909586348976613,1.7943182707040892,-10.068643012312256,0.943417434934985,0.6777761816911315,-0.15769760859005802,1.0602294818492226,0.7639833458674763,-0.17799180527070665,0,70,255.0,255.0,255.0
84,4.2,1.958078852590754,1.8291600832706625,-10.076750040973646,0.9962096099322654,0.7158568069654574,-0.16657670737146815,1.051457518042001,0.7592416651055641,-0.1771721459856999,0,70,255.0,255.0,255.0
85,4.25,2.0092,1.8659,-10.0853,1.0485631867391847,0.7537003482016875,-0.17541482318862792,1.0426855542347795,0.7544999843436475,-0.17635248670069337,0,70,255.0,255.0,255.0
86,4.3,2.0629305185177156,1.9045265166980243,-10.094290663999754,1.1006375987286996,0.7913278058695126,-0.18420138144051706,1.0402909253458248,0.750598322369363,-0.1751098433748742,0,70,255.0,255.0,255.0
87,4.3500000000000005,2.1192617643487965,1.945029529201973,-10.103719102607947,1.1525922792737677,0.8287601804386242,-0.19292580752611543,1.0378962964568699,0.7466966603950783,-0.17386720004905504,0,70,255.0,255.0,255.0
88,4.4,2.178187750921019,1.9873992833569087,-10.113582209216261,1.204427228374387,0.8659974719090209,-0.20158810144542266,1.0355016675679152,0.7427949984207938,-0.17262455672323587,0,70,255.0,255.0,255.0
89,4.45,2.239702491662161,2.0316260250078964,-10.123876877216384,1.2561424460305588,0.9030396802807034,-0.21018826319843895,1.0331070386789605,0.7388933364465092,-0.17138191339741674,0,70,255.0,255.0,255.0
90,4.5,2.3038,2.0777,-10.1346,1.3077379322422826,0.9398868055536714,-0.2187262927851643,1.0307124097900005,0.7349916744722149,-0.17013927007159735,0,70,255.0,255.0,255.0
91,4.55,2.370472533157419,2.1256119583410484,-10.14574900132376,1.3591083147158587,0.9765690974937582,-0.22723401210344985,1.0241028891530437,0.7323000031312636,-0.1701695026598257,0,70,255.0,255.0,255.0
92,4.6000000000000005,2.4397053235377224,2.1753546666899255,-10.15732342640417,1.4101482211575875,1.0131168058667983,-0.23574324305114697,1.017493368516087,0.7296083317903124,-0.17019973524805404,0,70,255.0,255.0,255.0
93,4.65,2.5114818473393146,2.2269213958682776,-10.1693233508227,1.4608576515674678,1.0495299306727899,-0.24425398562825534,1.0108838478791302,0.7269166604493611,-0.17022996783628236,0,70,255.0,255.0,255.0
94,4.7,2.5857855807606045,2.2803054166977534,-10.181748850160819,1.5112366059455002,1.085808471911734,-0.25276623983477514,1.0042743272421735,0.7242249891084098,-0.1702602004245107,0,70,255.0,255.0,255.0
95,4.75,2.6626,2.3355,-10.1946,1.5612850842916846,1.1219524295836305,-0.26128000567070636,0.9976648066052078,0.7215333177674577,-0.17029043301273772,0,70,255.0,255.0,255.0
96,4.800000000000001,2.7419097488526067,2.392497649937783,-10.207875730705206,1.6110731424078655,1.1579158041554563,-0.2697265701456679,0.9938575180419974,0.7170016651055557,-0.1675721459857217,0,70,255.0,255.0,255.0
97,4.8500000000000005,2.823704141500318,2.4512878040383277,-10.221570391775378,1.6606708360958848,1.1936525960941866,-0.27803722026927863,0.990050229478787,0.7124700124436539,-0.16485385895870575,0,70,255.0,255.0,255.0
98,4.9,2.907973659721726,2.511859133169983,-10.235677187492946,1.7100781653557438,1.2291628053998214,-0.2862119560415385,0.9862429409155765,0.7079383597817521,-0.16213557193168976,0,70,255.0,255.0,255.0
99,4.95,2.994708785295422,2.5742003082010916,-10.250189322140342,1.759295130187442,1.2644464320723616,-0.29425077746244754,0.9824356523523662,0.7034067071198503,-0.1594172849046738,0,70,255.0,255.0,255.0
100,5.0,3.0839,2.6383,-10.2651,1.8083217305909802,1.2995034761118063,-0.30215368453200575,0.9786283637891682,0.698875054457945,-0.15669899787765562,0,70,255.0,255.0,255.0
101,5.050000000000001,3.175537271432158,2.7041478419078255,-10.280404075855413,1.8571271156526843,1.334391685884418,-0.3100197073138826,0.9735870386789652,0.6966533364465082,-0.15794191339741365,0,70,255.0,255.0,255.0
102,5.1000000000000005,3.269608510461011,2.771737317156766,-10.296103006494322,1.9056804344588774,1.3691688097564574,-0.3179478758717472,0.9685457135687624,0.6944316184350715,-0.15918482891717167,0,70,255.0,255.0,255.0
103,5.15,3.366101113773786,2.841062871451795,-10.312199899205522,1.95398168700956,1.403834847727925,-0.3259381902055997,0.9635043884585595,0.6922099004236347,-0.16042774443692967,0,70,255.0,255.0,255.0
104,5.2,3.465002478057708,2.912118950497882,-10.328697861277815,2.0020308733047325,1.4383897997988206,-0.33399065031544006,0.9584630633483566,0.6899881824121981,-0.1616706599566877,0,70,255.0,255.0,255.0
105,5.25,3.5663,2.9849,-10.3456,2.0498279933443957,1.4728336659691446,-0.34210525620126836,0.9534217382381627,0.6877664644007542,-0.16291357547644258,0,70,255.0,255.0,255.0
106,5.300000000000001,3.6699811654187706,3.059399782430921,-10.362907965873138,2.097378394981405,1.507125452306874,-0.35019460059879204,0.9485943272421621,0.6839049891084069,-0.16066020042449788,0,70,255.0,255.0,255.0
107,5.3500000000000005,3.776033816655645,3.1356093273346115,-10.380617582247336,2.144687426068612,1.5412241648799856,-0.3581712762437182,0.9437669162461617,0.6800435138160598,-0.1584068253725532,0,70,255.0,255.0,255.0
108,5.4,3.8844458851831347,3.213518981022842,-10.398723215684965,2.1917550866060203,1.5751298036884798,-0.3660352831360472,0.9389395052501612,0.6761820385237126,-0.15615345032060854,0,70,255.0,255.0,255.0
109,5.45,3.9952053024737495,3.293119089807382,-10.417219232748396,2.238581376593628,1.6088423687323568,-0.37378662127577905,0.9341120942541608,0.6723205632313654,-0.1539000752686639,0,70,255.0,255.0,255.0
110,5.5,4.1083,3.3744,-10.4361,2.2851662960314365,1.642361860011616,-0.38142529066291353,0.9292846832581638,0.6684590879390111,-0.15164670021671522,0,70,255.0,255.0,255.0
111,5.550000000000001,4.2237180668927685,3.4573522283684976,-10.455360860652036,2.331519304421701,1.675698504888088,-0.3890098902909488,0.924835652352376,0.6650067071198431,-0.15173728490468985,0,70,255.0,255.0,255.0
112,5.6000000000000005,4.341448222916416,3.541966973504793,-10.475001064516334,2.3776498612666748,1.7088625307236007,-0.3965990191533826,0.9203866214465882,0.6615543263006752,-0.15182786959266448,0,70,255.0,255.0,255.0
113,5.65,4.4614793454936805,3.6282356044568416,-10.495020838054614,2.423557966566359,1.7418539375181552,-0.4041926772502151,0.9159375905408005,0.6581019454815074,-0.1519184542806391,0,70,255.0,255.0,255.0
114,5.7,4.5838003120472965,3.7161494902725924,-10.515420407728596,2.4692436203207544,1.7746727252717514,-0.4117908645814465,0.9114885596350127,0.6546495646623395,-0.15200903896861373,0,70,255.0,255.0,255.0
115,5.75,4.7084,3.8057,-10.5362,2.51470682252986,1.807318893984389,-0.4193935811470764,0.907039528729225,0.6511971838431752,-0.15209962365658436,0,70,255.0,255.0,255.0
116,5.800000000000001,4.8352673670101645,3.896878504095095,-10.557358991518715,2.5599523873318004,1.839792528140774,-0.42694983823740806,0.9027830633483539,0.6477481824122111,-0.15015065995667834,0,70,255.0,255.0,255.0
117,5.8500000000000005,4.964391691678697,3.989676378646219,-10.578893359687324,2.604985128864696,1.8720937122256105,-0.43440864714274435,0.8985265979674828,0.6442991809812472,-0.14820169625677238,0,70,255.0,255.0,255.0
118,5.9,5.095762332842149,4.084085001149796,-10.600798232096574,2.649805047128548,1.9042224462388986,-0.4417700078630853,0.8942701325866117,0.6408501795502832,-0.1462527325568664,0,70,255.0,255.0,255.0
119,5.95,5.229368649337068,4.180095749102249,-10.623068736337215,2.694412142123357,1.9361787301806386,-0.44903392039843093,0.8900136672057407,0.6374011781193193,-0.14430376885696042,0,70,255.0,255.0,255.0
120,6.0,5.3652,4.2777,-10.6457,2.7388064138491215,1.9679625640508303,-0.4562003847487813,0.885757201824859,0.6339521766883447,-0.14235480515705268,0,70,255.0,255.0,255.0
121,6.050000000000001,5.503243665066585,4.37688815525113,-10.6686879732731,2.7828631462510978,1.999515382548823,-0.4633187567594249,0.8765120942541599,0.6281605632313496,-0.14238007526868895,0,70,255.0,255.0,255.0
122,6.1000000000000005,5.643478610368802,4.477646711910335,-10.692031896734369,2.8264576232745378,2.0307786203739653,-0.47043839227565026,0.8672669866834609,0.6223689497743545,-0.14240534538032526,0,70,255.0,255.0,255.0
123,6.15,5.785881723137728,4.579961190943978,-10.71573183355909,2.8695898449194432,2.0617522775262582,-0.4775592912974574,0.858021879112762,0.6165773363173596,-0.14243061549196154,0,70,255.0,255.0,255.0
124,6.2,5.930429890604437,4.6838171133184145,-10.739787846922539,2.912259811185814,2.0924363540057014,-0.48468145382484634,0.8487767715420631,0.6107857228603645,-0.14245588560359784,0,70,255.0,255.0,255.0
125,6.25,6.0771,4.7892,-10.7642,2.9544675220736494,2.1228308498122943,-0.49180487985781707,0.839531663971357,0.6049941094033464,-0.14248115571523368,0,70,255.0,255.0,255.0
126,6.300000000000001,6.225860372723508,4.896088874900395,-10.788965915388893,2.9956990276638096,2.152545941663936,-0.49878313472491165,0.8097285596350271,0.5836095646623211,-0.13664903896854572,0,70,255.0,255.0,255.0
127,6.3500000000000005,6.376645066846102,5.0044367737124436,-10.814073453375203,3.0354403780371526,2.181191806278527,-0.5054697837546717,0.7799254552986977,0.5622250199212961,-0.13081692222185784,0,70,255.0,255.0,255.0
128,6.4,6.529379574606942,5.114190235074296,-10.83950803366707,3.073691573193679,2.208768443656066,-0.5118648269470975,0.7501223509623682,0.5408404751802712,-0.12498480547516996,0,70,255.0,255.0,255.0
129,6.45,6.683989388245189,5.225295797624099,-10.865255075972623,3.110452613133389,2.2352758537965536,-0.5179682643021887,0.7203192466260389,0.5194559304392462,-0.1191526887284821,0,70,255.0,255.0,255.0
130,6.5,6.8404,5.3377,-10.8913,3.145723497856283,2.26071403669999,-0.5237800958199456,0.6905161422897201,0.49807138569821063,-0.11332057198179246,0,70,255.0,255.0,255.0
131,6.550000000000001,6.998547644039394,5.451357145147298,-10.91763076517134,3.1801487430936697,2.285548850795429,-0.5294527043409154,0.6864936672057346,0.4953211781193417,-0.1135837688569966,0,70,255.0,255.0,255.0
132,6.6000000000000005,7.158411522246799,5.566252593239895,-10.94424548976482,3.2143728645768572,2.3102461545119244,-0.5351384727056453,0.6824711921217492,0.4925709705404728,-0.11384696573220073,0,70,255.0,255.0,255.0
133,6.65,7.319981578434509,5.682379468758842,-10.971144831772632,3.248395862305845,2.334805947849476,-0.5408374009141353,0.6784487170377638,0.4898207629616038,-0.11411016260740485,0,70,255.0,255.0,255.0
134,6.7,7.483247756414812,5.799730896185193,-10.998329449186965,3.282217736280633,2.3592282308080845,-0.5465494889663858,0.6744262419537783,0.4870705553827349,-0.11437335948260899,0,70,255.0,255.0,255.0
135,6.75,7.6482,5.9183,-11.0258,3.3158384865012227,2.3835130033877494,-0.5522747368623961,0.6704037668697964,0.4843203478038589,-0.1146365563578069,0,70,255.0,255.0,255.0
136,6.800000000000001,7.81482505111893,6.038076944510418,-11.053555823925755,3.3490659999615198,2.407482655154355,-0.5579340479114313,0.6586967715420569,0.4744657228603471,-0.11173588560359914,0,70,255.0,255.0,255.0
137,6.8500000000000005,7.983096844166713,6.159040053327984,-11.081590987565514,3.3817081636554285,2.4309595756737843,-0.5634483254227561,0.6469897762143175,0.4646110979168354,-0.10883521484939142,0,70,255.0,255.0,255.0
138,6.9,8.152986111655032,6.281164689890342,-11.109898239242401,3.413764977582951,2.4539437649460383,-0.5688175693963704,0.6352827808865782,0.4547564729733238,-0.1059345440951837,0,70,255.0,255.0,255.0
139,6.95,8.324463586095566,6.404426217635134,-11.138470327279524,3.445236441744086,2.4764352229711166,-0.5740417798322744,0.6235757855588389,0.44490184802981214,-0.103033873340976,0,70,255.0,255.0,255.0
140,7.0,8.4975,6.5288,-11.1673,3.4761225561388343,2.4984339497490198,-0.579120956730468,0.6118687902310889,0.43504722308631116,-0.10013320258676295,0,70,255.0,255.0,255.0
141,7.050000000000001,8.6720665514849,6.654263076811041,-11.196381139125648,3.506451257060262,2.5200405285871583,-0.5841231040133495,0.6012792466260128,0.42921593043921497,-0.09995268872849117,0,70,255.0,255.0,255.0
142,7.1000000000000005,8.848136301086358,6.780799193448178,-11.225712159973119,3.536250480801436,2.5413555427929415,-0.5891162256033171,0.590689703020937,0.4233846377921189,-0.09977217487021939,0,70,255.0,255.0,255.0
143,7.15,9.02568277494537,6.908393771679796,-11.255292611257767,3.565520227362356,2.56237899236637,-0.5941003215003713,0.5801001594158612,0.41755334514502274,-0.09959166101194761,0,70,255.0,255.0,255.0
144,7.2,9.204679499202921,7.037032233274275,-11.285122041694942,3.5942604967430216,2.5831108773074436,-0.599075391704512,0.5695106158107854,0.41172205249792665,-0.09941114715367583,0,70,255.0,255.0,255.0
145,7.25,9.3851,7.1667,-11.3152,3.622471288943434,2.6035511976161625,-0.6040414362157389,0.5589210722056954,0.40589075985082346,-0.0992306332954005,0,70,255.0,255.0,255.0
146,7.300000000000001,9.566918342941491,7.297381948245428,-11.345524419571653,3.650184971797422,2.6236672304970026,-0.6089015360351886,0.5496262419538133,0.39875055538276233,-0.09517335948258208,0,70,255.0,255.0,255.0
147,7.3500000000000005,9.750110751487867,7.429060772879311,-11.376086772542008,3.677433913138816,2.643426253154439,-0.6135587721639971,0.5403314117019312,0.3916103509147013,-0.09111608566976374,0,70,255.0,255.0,255.0
148,7.4,9.934653988563497,7.561718623390481,-11.406876915726542,3.7042181129676153,2.6628282655884727,-0.6180131446021649,0.5310365814500492,0.38447014644664035,-0.08705881185694542,0,70,255.0,255.0,255.0
149,7.45,10.120524817092752,7.695337649267767,-11.437884705940716,3.7305375712838202,2.681873267799103,-0.6222646533496917,0.5217417511981672,0.37732994197857933,-0.08300153804412708,0,70,255.0,255.0,255.0
150,7.5,10.3077,7.8299,-11.4691,3.7563922880874316,2.7005612597863298,-0.6263132984065775,0.512446920946271,0.37018973751050055,-0.0789442642313043,0,70,255.0,255.0,255.0
151,7.550000000000001,10.496156076749145,7.9653875302072565,-11.500514782587747,3.7817688557500593,2.7188745494248376,-0.6302867518458841,0.5026157855588216,0.3623418480298027,-0.07999387334095884,0,70,255.0,255.0,255.0
152,7.6000000000000005,10.685868692962186,8.101780915034585,-11.532129549858844,3.8066538666433143,2.73679544458931,-0.6343126857406733,0.49278465017137224,0.354493958549105,-0.08104348245061335,0,70,255.0,255.0,255.0
153,7.65,10.876813270800653,8.239060534758288,-11.563946925836072,3.8310473207671962,2.754323945279748,-0.6383911000909454,0.482953514783923,0.3466460690684073,-0.08209309156026788,0,70,255.0,255.0,255.0
154,7.7,11.06896523242608,8.37720676965466,-11.595969534542197,3.8549492181217064,2.7714600514961507,-0.6425219948967001,0.4731223793964737,0.3387981795877095,-0.0831427006699224,0,70,255.0,255.0,255.0
155,7.75,11.2623,8.5162,-11.6282,3.878359558706844,2.7882037632385193,-0.6467053701579376,0.4632912440090422,0.3309502901070154,-0.08419230977957692,0,70,255.0,255.0,255.0
156,7.800000000000001,11.45679255006194,8.656020730925558,-11.66063885007736,3.901251605202339,2.804562571803643,-0.65081545658127,0.45239061581075346,0.32340205249792775,-0.08021114715371999,0,70,255.0,255.0,255.0
157,7.8500000000000005,11.652416076663403,8.79664996698236,-11.693278228022606,3.9235986202879194,2.820543968488312,-0.6547264848733096,0.44148998761246494,0.3158538148888403,-0.07622998452786311,0,70,255.0,255.0,255.0
158,7.9,11.849143328233897,8.93806883757638,-11.726108180929172,3.9454006039635856,2.836147953292527,-0.6584384550340563,0.43058935941417636,0.30830557727975283,-0.07224882190200625,0,70,255.0,255.0,255.0
159,7.95,12.04694705320293,9.080258472113602,-11.75911875589049,3.9666575562293374,2.8513745262162873,-0.6619513670635103,0.4196887312158878,0.30075733967066537,-0.06826765927614939,0,70,255.0,255.0,255.0
160,8.0,12.2458,9.2232,-11.7923,3.9873694770851738,2.8662236872595934,-0.6652652209616712,0.4087881030175886,0.2932091020615779,-0.06428649665029162,0,70,255.0,255.0,255.0
161,8.05,12.445675323003108,9.366875146090525,-11.82564341710281,4.0075607234405695,2.880731163360598,-0.6684674218290311,0.3988617511982034,0.28708994197859206,-0.06380153804410149,0,70,255.0,255.0,255.0
162,8.1,12.646547800384205,9.511268017035988,-11.859146338050731,4.027255652204994,2.8949326814574525,-0.6716453747660812,0.3889353993788185,0.28097078189560637,-0.06331657943791136,0,70,255.0,255.0,255.0
163,8.15,12.848392616263757,9.656363314936199,-11.892807550447246,4.04645426337845,2.9088282415501583,-0.6747990797728222,0.3790090475594332,0.2748516218126205,-0.06283162083172122,0,70,255.0,255.0,255.0
164,8.200000000000001,13.051184954762206,9.802145741890941,-11.926625841895842,4.065156556960938,2.922417843638715,-0.6779285368492536,0.369082695740048,0.2687324617296346,-0.06234666222553108,0,70,255.0,255.0,255.0
165,8.25,13.2549,9.9486,-11.9606,4.083362532952456,2.9357014877231213,-0.6810337459953753,0.35915634392065243,0.2626133016466454,-0.061861703619337405,0,70,255.0,255.0,255.0
166,8.3,13.459513357925639,10.09570988471236,-11.994728281511398,4.101097501035384,2.9486247747539798,-0.6840828561026073,0.3502423793964921,0.25431817958767183,-0.06010270066994072,0,70,255.0,255.0,255.0
167,8.35,13.665002321799765,10.243455564873681,-12.02900681977447,4.118386770892105,2.9611333056818885,-0.6870440160623693,0.3413284148723321,0.24602305752869857,-0.058343697720544097,0,70,255.0,255.0,255.0
168,8.4,13.871344606711078,10.391816302678832,-12.063431217281844,4.135230342522617,2.9732270805068493,-0.6899172258746616,0.33241445034817185,0.23772793546972504,-0.056584694771147415,0,70,255.0,255.0,255.0
169,8.450000000000001,14.078517927748264,10.540771360322655,-12.097997076526145,4.151628215926922,2.984906099228861,-0.6927024855394841,0.32350048582401153,0.22943281341075145,-0.054825691821750726,0,70,255.0,255.0,255.0
170,8.5,14.2865,10.6903,-12.1327,4.167580391105019,2.9961703618479243,-0.6953997950568366,0.31458652129986575,0.22113769135176398,-0.05306668887235144,0,70,255.0,255.0,255.0
171,8.55,14.495267245294345,10.840382115060054,-12.167535456851601,4.1830092724179115,3.007057737623485,-0.6980011537605484,0.3025687312158551,0.21435733967065707,-0.050987659276120714,0,70,255.0,255.0,255.0
172,8.6,14.70479091241672,10.99100012346928,-12.20249838285139,4.197837264226604,3.01760609581499,-0.7004985609844486,0.2905509411318449,0.20757698798955038,-0.04890862967989006,0,70,255.0,255.0,255.0
173,8.65,14.915040956891932,11.142137074348485,-12.237583580425381,4.212064366531097,3.02781543642244,-0.7028920167285374,0.27853315104783427,0.20079663630844347,-0.046829600083659335,0,70,255.0,255.0,255.0
174,8.700000000000001,15.125987334244765,11.29377601681846,-12.272785851999583,4.2256905793313875,3.0376857594458344,-0.7051815209928146,0.2665153609638236,0.19401628462733655,-0.04475057048742861,0,70,255.0,255.0,255.0
175,8.75,15.3376,11.4459,-12.3081,4.2387159026274785,3.0472170648851735,-0.7073670737772803,0.2544975708798276,0.18723593294621566,-0.04267154089119796,0,70,255.0,255.0,255.0
176,8.8,15.549850460897002,11.598492055047437,-12.3435210910822,4.251233409292976,3.0564082747520707,-0.709464528855199,0.24620269574006232,0.18041246172966358,-0.041226662225545295,0,70,255.0,255.0,255.0
177,8.85,15.762716428533347,11.751535141249192,-12.379045248819965,4.263336172201485,3.0652583110581397,-0.7114897399998348,0.23790782060029733,0.17358899051311175,-0.03978178355989269,0,70,255.0,255.0,255.0
178,8.9,15.976177165721198,11.905012199927235,-12.414668861016631,4.275024191353006,3.0737671738033816,-0.7134427072111881,0.22961294546053204,0.16676551929655967,-0.038336904894240034,0,70,255.0,255.0,255.0
179,8.950000000000001,16.1902119352727,12.058906172403521,-12.450388315475529,4.286297466747539,3.0819348629877963,-0.7153234304892588,0.22131807032076675,0.1599420480800076,-0.03689202622858737,0,70,255.0,255.0,255.0
180,9.0,16.4048,12.2132,-12.4862,4.297155998385082,3.0897613786113824,-0.7171319098340468,0.21302319518100177,0.15311857686345576,-0.03544714756293477,0,70,255.0,255.0,255.0
181,9.05,16.61991971111767,12.367876064750215,-12.5221001788196,4.307545090410207,3.097213163368237,-0.7188607308186634,0.20254048582395526,0.14495281341074093,-0.03370569182173015,0,70,255.0,255.0,255.0
182,9.1,16.83554577344989,12.522914511533946,-12.558084621868748,4.317410046967478,3.1042566599524566,-0.7205024790162199,0.19205777646690914,0.13678704995802637,-0.0319642360805256,0,70,255.0,255.0,255.0
183,9.15,17.051651980223284,12.67829492594258,-12.594148975508103,4.326750868056897,3.11089186836404,-0.722057154426716,0.1815750671098626,0.12862128650531157,-0.030222780339320986,0,70,255.0,255.0,255.0
184,9.200000000000001,17.268212124664455,12.833996893567477,-12.630288886098302,4.335567553678464,3.117118788602988,-0.723524757050152,0.17109235775281612,0.12045552305259673,-0.02848132459811637,0,70,255.0,255.0,255.0
185,9.25,17.4852,12.99,-12.6665,4.34386010383218,3.1229374206693,-0.7249052868865277,0.16060964839574865,0.11228975959987864,-0.026739868856910043,0,70,255.0,255.0,255.0
186,9.3,17.70258909463234,13.14628448595173,-12.702778193639409,4.3516102290661705,3.1283870717749798,-0.7262125478701364,0.14939536096388492,0.10569628462729445,-0.025550570487438567,0,70,255.0,255.0,255.0
187,9.35,17.92035167766709,13.30283321261502,-12.739120263705036,4.358799639928568,3.13350704913203,-0.7274603439352715,0.13818107353202158,0.09910280965471051,-0.024361272117967132,0,70,255.0,255.0,255.0
188,9.4,18.13845971338567,13.459629696302454,-12.775523236950962,4.365428336419373,3.1382973527404503,-0.7286486750819331,0.12696678610015788,0.09250933468212633,-0.02317197374849566,0,70,255.0,255.0,255.0
189,9.450000000000001,18.356885166069503,13.616657453326592,-12.811984140131258,4.371496318538584,3.1427579826002425,-0.7297775413101212,0.11575249866829414,0.08591585970954213,-0.021982675379024184,0,70,255.0,255.0,255.0
190,9.5,18.5756,13.7739,-12.8485,4.377003586286201,3.1468889387114047,-0.7308469426198356,0.1045382112364095,0.07932238473696529,-0.020793377009553637,0,70,255.0,255.0,255.0
191,9.55,18.794577510352976,13.931340391442886,-12.885067046622764,4.38202999332513,3.1506625495318303,-0.7318090777007903,0.09651807032075073,0.07162204808004649,-0.017692026228632286,0,70,255.0,255.0,255.0
192,9.600000000000001,19.013796315881756,14.088959838005973,-12.921678323311095,4.386655393318276,3.1540511435194096,-0.7326161452426988,0.08849792940509195,0.06392171142312768,-0.014590675447710933,0,70,255.0,255.0,255.0
193,9.65,19.233236366234042,14.246739088847614,-12.958326076688047,4.390879786265639,3.1570547206741426,-0.7332681452455614,0.08047778848943346,0.056221374766209156,-0.011489324666789692,0,70,255.0,255.0,255.0
194,9.700000000000001,19.45287761105756,14.404658893126172,-12.995002553376667,4.39470317216722,3.1596732809960306,-0.7337650777093778,0.0724576475737747,0.04852103810929035,-0.008387973885868339,0,70,255.0,255.0,255.0
195,9.75,19.6727,14.5627,-13.0317,4.398125551023016,3.1619068244850723,-0.7341069426341481,0.06443750665809489,0.040820701452375374,-0.005286623104944432,0,70,255.0,255.0,255.0
196,9.8,19.892681663955763,14.720843548276738,-13.068412019869545,4.401037797633287,3.163778730097697,-0.7343751413267234,0.05205235775274826,0.03405552305262621,-0.005441324598066368,0,70,255.0,255.0,255.0
197,9.850000000000001,20.11279345880591,14.879072235361107,-13.105137643050584,4.403330786798291,3.165312376790335,-0.7346510750939548,0.03966720884740163,0.02729034465287706,-0.005596026091188304,0,70,255.0,255.0,255.0
198,9.9,20.33300442167817,15.037369148307103,-13.14187725629685,4.4050045185180275,3.166507764562985,-0.7349347439358422,0.027282059942055438,0.020525166253128144,-0.0057507275843102345,0,70,255.0,255.0,255.0
199,9.950000000000001,20.553283589700293,15.195717374168739,-13.178631246362082,4.406058992792496,3.1673648934156478,-0.7352261478523857,0.014896911036708808,0.013759987853378987,-0.00590542907743217,0,70,255.0,255.0,255.0
200,10.0,20.7736,15.3541,-13.2154,4.406494209621698,3.1678837633483234,-0.7355252868435855,0.0025117621313910377,0.0069948094536194105,-0.006060130570554989,0,70,255.0,255.0,255.0
201,10.05,20.993924633823973,15.512499815450177,-13.252182473899063,4.4064268161416935,3.1680465300774014,-0.7357463569923245,-0.0052075013315574055,-0.00048414029049947526,-0.0027826753790019397,0,70,255.0,255.0,255.0
202,10.100000000000001,21.214236248894622,15.670898420549625,-13.288971904486575,4.405973459488542,3.1678353493192732,-0.7358035543814858,-0.012926764794505849,-0.007963090034618361,0.0004947798125511096,0,70,255.0,255.0,255.0
203,10.15,21.434515547053277,15.829277117923981,-13.325760098124551,4.405134139662244,3.1672502210739397,-0.7356968790110693,-0.020646028257454017,-0.015442039778736979,0.0037722350041040423,0,70,255.0,255.0,255.0
204,10.200000000000001,21.654743230141293,15.987617210198898,-13.36253886117502,4.403908856662797,3.1662911453414,-0.7354263308810753,-0.02836529172040246,-0.022920989522855865,0.00704969019565709,0,70,255.0,255.0,255.0
205,10.25,21.8749,16.1459,-13.3993,4.402297610490203,3.164958122121654,-0.7349919099915037,-0.03608455518336484,-0.030399939266974485,0.0103271453872118,0,70,255.0,255.0,255.0
206,10.3,22.09496460074835,16.304106789922574,-13.436036484534206,4.400182937799961,3.163251149592711,-0.7344634307039711,-0.048502352426308626,-0.03787896189074129,0.010812026114089341,0,70,255.0,255.0,255.0
207,10.350000000000001,22.314907945615634,16.462218882440425,-13.472745939003124,4.397447375247572,3.1611702259325796,-0.7339107073800947,-0.06092014966925241,-0.04535798451450809,0.011296906840966884,0,70,255.0,255.0,255.0
208,10.4,22.534698990108733,16.62021757999698,-13.509427151204944,4.394090922833036,3.1587153511412605,-0.7333337400198745,-0.07333794691219575,-0.052837007138274626,0.011781787567844407,0,70,255.0,255.0,255.0
209,10.450000000000001,22.75430668973457,16.778084185035695,-13.54607890893784,4.390113580556353,3.1558865252187527,-0.7327325286233103,-0.08575574415513953,-0.06031602976204142,0.01226666829472195,0,70,255.0,255.0,255.0
210,10.5,22.9737,16.9358,-13.5827,4.385515348417521,3.1526837481650563,-0.7321070731904022,-0.09817354139813261,-0.06779505238580086,0.012751549021603026,0,70,255.0,255.0,255.0
211,10.55,23.192849763182647,17.093346624859542,-13.619288387964119,4.380409432658484,3.1491248715517455,-0.7314079201917975,-0.10606308896335162,-0.07456001214661906,0.015214570922587035,0,70,255.0,255.0,255.0
212,10.600000000000001,23.411734368642882,17.250706849688715,-13.65583873950093,4.374909039521186,3.145227746950394,-0.7305856160981435,-0.11395263652857061,-0.08132497190743726,0.017677592823571044,0,70,255.0,255.0,255.0
213,10.65,23.63033409251179,17.407863762088112,-13.692344897055683,4.369014169005627,3.140992374361002,-0.7296401609094404,-0.12184218409378934,-0.08808993166825521,0.02014061472455497,0,70,255.0,255.0,255.0
214,10.700000000000001,23.848629210920475,17.564800449658346,-13.728800703073624,4.362724821111807,3.136418753783569,-0.728571554625688,-0.12973173165900834,-0.09485489142907341,0.022603636625538978,0,70,255.0,255.0,255.0
215,10.75,24.0666,17.7215,-13.7652,4.3560409958397255,3.131506885218095,-0.7273797972468865,-0.13762127922423417,-0.10161985118988781,0.0250666585265229,0,70,255.0,255.0,255.0
216,10.8,24.284225146521084,17.87794511063928,-13.801537163609325,4.348867331566109,3.126233364200279,-0.7260968885288315,-0.14932529172038772,-0.1093209895227589,0.026249690195680502,0,70,255.0,255.0,255.0
217,10.850000000000001,24.50147697981287,18.034116918804752,-13.83780870299316,4.341108466667687,3.120574786265819,-0.7247548282273184,-0.16102930421654127,-0.11702212785563,0.027432721864838104,0,70,255.0,255.0,255.0
218,10.9,24.718326239844107,18.189996171650584,-13.874011660572332,4.332764401144456,3.114531151414716,-0.7233536163423475,-0.1727333167126944,-0.12472326618850081,0.028615753533995668,0,70,255.0,255.0,255.0
219,10.950000000000001,24.934743666583568,18.345563616330946,-13.91014307876767,4.323835134996417,3.108102459646969,-0.7218932528739188,-0.18443732920884795,-0.1324244045213719,0.02979878520315327,0,70,255.0,255.0,255.0
220,11.0,25.1507,18.5008,-13.9462,4.314320668223571,3.101288710962579,-0.7203737378220323,-0.1961413417050153,-0.14012554285425693,0.030981816872312606,0,70,255.0,255.0,255.0
221,11.05,25.366167250733028,18.655686532583353,-13.982178957598586,4.304297241077067,3.0941176716471697,-0.7187645256928575,-0.20479574415516322,-0.1467160297621164,0.03338666829467488,0,70,255.0,255.0,255.0
222,11.100000000000001,25.581122512105672,18.8102062750923,-14.018074448526434,4.293841093808054,3.0866171079863673,-0.7170350709925648,-0.21345014660531117,-0.15330651666997586,0.03579151971703716,0,70,255.0,255.0,255.0
223,11.15,25.79554414811179,18.964342751309566,-14.053880460654991,4.282952226416535,3.078787019980172,-0.715185373721154,-0.2221045490554588,-0.1598970035778351,0.038196371139399346,0,70,255.0,255.0,255.0
224,11.200000000000001,26.009410522745284,19.118079485017894,-14.089590981855697,4.271630638902509,3.0706274076285838,-0.7132154338786247,-0.23075895150560674,-0.16648749048569456,0.04060122256176163,0,70,255.0,255.0,255.0
225,11.25,26.2227,19.2714,-14.1252,4.259876331265975,3.0621382709316025,-0.7111252514649777,-0.23941335395576857,-0.173077977393568,0.04300607398412204,0,70,255.0,255.0,255.0
226,11.3,26.435389850546812,19.424287159027326,-14.160702205996335,4.247623704125606,3.0532799492110345,-0.7089570086997367,-0.2506917316590092,-0.18125489142914417,0.043723636625522755,0,70,255.0,255.0,255.0
227,11.350000000000001,26.647452971764476,19.576721180826077,-14.196095102901106,4.234807158100074,3.044012781788688,-0.7067528878024254,-0.2619701093622499,-0.1894318054647203,0.04444119926692347,0,70,255.0,255.0,255.0
228,11.4,26.858861167708735,19.72868162311116,-14.231376896807708,4.221426693189381,3.0343367686645624,-0.7045128887730443,-0.27324848706549015,-0.19760871950029615,0.04515876190832416,0,70,255.0,255.0,255.0
229,11.450000000000001,27.06958624243533,19.8801480435975,-14.266545793809543,4.207482309393525,3.024251909838658,-0.702237011611593,-0.2845268647687308,-0.20578563353587231,0.04587632454972487,0,70,255.0,255.0,255.0
230,11.5,27.2796,20.0311,-14.3016,4.192974006712507,3.0137582053109755,-0.6999252563180718,-0.29580524247197104,-0.21396254757146238,0.04659388719112734,0,70,255.0,255.0,255.0
231,11.55,27.488874947079726,20.181517631307354,-14.336537018416077,4.177943942420488,3.002890531508658,-0.6975354395082132,-0.3053973292087734,-0.22074440452124275,0.04899878520321262,0,70,255.0,255.0,255.0
232,11.600000000000001,27.697386400836443,20.33138340160341,-14.371351539869146,4.16243427379163,2.9916837648588506,-0.6950253777977505,-0.3149894159455758,-0.2275262614710231,0.05140368321529792,0,70,255.0,255.0,255.0
233,11.65,27.90511038105328,20.48068035624578,-14.406037552114174,4.146445000825931,2.9801379053615555,-0.6923950711866835,-0.3245815026823778,-0.2343081184208032,0.05380858122738312,0,70,255.0,255.0,255.0
234,11.700000000000001,28.112022907513417,20.629391540592106,-14.440589042906138,4.129976123523392,2.9682529530167705,-0.6896445196750122,-0.3341735894191802,-0.24108997537058358,0.05621347923946841,0,70,255.0,255.0,255.0
235,11.75,28.3181,20.7775,-14.475,4.113027641884014,2.9560289078244972,-0.6867737232627366,-0.3437656761559893,-0.2478718323203637,0.058618377251556275,0,70,255.0,255.0,255.0
236,11.8,28.52331756113428,20.924988715743257,-14.50926492033936,4.095592526192473,2.9434619247543456,-0.6838132332674038,-0.35363895150567415,-0.2548074904856962,0.05980122256175042,0,70,255.0,255.0,255.0
237,11.850000000000001,28.727651024889795,21.071840412760302,-14.543380337622315,4.077663746733446,2.9305481587759274,-0.6807936010065615,-0.363512226855359,-0.26174314865102866,0.06098406787194456,0,70,255.0,255.0,255.0
238,11.9,28.931075708078165,21.21803775190571,-14.577343294735591,4.059241303506937,2.9172876098892426,-0.6777148264802094,-0.3733855022050435,-0.26867880681636086,0.062166913182138656,0,70,255.0,255.0,255.0
239,11.950000000000001,29.13356692751103,21.363563394034085,-14.611150834565912,4.040325196512942,2.903680278094291,-0.6745769096883476,-0.38325877755472837,-0.27561446498169334,0.0633497584923328,0,70,255.0,255.0,255.0
240,12.0,29.3351,21.5084,-14.6448,4.020915425751463,2.8897261633910736,-0.6713798506309762,-0.3931320529044271,-0.28255012314702554,0.06453260380252868,0,70,255.0,255.0,255.0
241,12.05,29.53565000838317,21.652529905719625,-14.678287300226485,4.000997952809632,2.875405769473997,-0.6680916274221701,-0.40356686476879433,-0.2902656335360221,0.06699632454971066,0,70,255.0,255.0,255.0
242,12.100000000000001,29.735191099604418,21.795934147355414,-14.711607109641594,3.980558739274583,2.8606996000374707,-0.664680218176005,-0.41400167663316156,-0.2979811439250187,0.06946004529689265,0,70,255.0,255.0,255.0
243,12.15,29.933697186634074,21.938593436131384,-14.74475326894346,3.959597785146316,2.8456076550814955,-0.6611456228924809,-0.4244364884975284,-0.30569665431401494,0.07192376604407455,0,70,255.0,255.0,255.0
244,12.200000000000001,30.131142182442492,22.080488483271573,-14.777719618830218,3.93811509042483,2.8301299346060693,-0.6574878415715976,-0.43487130036189564,-0.31341216470301153,0.07438748679125654,0,70,255.0,255.0,255.0
245,12.25,30.3275,22.2216,-14.8105,3.916110655110127,2.814266438611194,-0.6537068742133553,-0.4453061122262696,-0.32112767509201845,0.07685120753844021,0,70,255.0,255.0,255.0
246,12.3,30.522744805333065,22.361909261378244,-14.843089078754701,3.893599662568992,2.79805099734963,-0.6498522570439078,-0.4551335894191014,-0.3274899753705207,0.0773334792394552,0,70,255.0,255.0,255.0
247,12.350000000000001,30.71685177669258,22.50139979781807,-14.875484823811307,3.870597296168216,2.7815174410741417,-0.6459735262894097,-0.4649610666119332,-0.333852275649023,0.07781575094047019,0,70,255.0,255.0,255.0
248,12.4,30.90979634538556,22.64005570356876,-14.907686029490558,3.847103555907799,2.764665769784728,-0.6420706819498608,-0.4747885438047647,-0.340214575927525,0.07829802264148515,0,70,255.0,255.0,255.0
249,12.450000000000001,31.10155394271903,22.77786107287964,-14.939691490113207,3.8231184417877397,2.747495983481389,-0.6381437240252611,-0.48461602099759654,-0.3465768762060273,0.07878029434250014,0,70,255.0,255.0,255.0
250,12.5,31.2921,22.9148,-14.9715,3.798641953808039,2.730008082164126,-0.6341926525156107,-0.49444349819045286,-0.3529391764845258,0.07926256604351956,0,70,255.0,255.0,255.0
251,12.55,31.481409970284602,23.050855448767393,-15.003109184754706,3.7736753969144075,2.7121342411274716,-0.6301473444022138,-0.5042187775548038,-0.3620144649816269,0.08254975849235789,0,70,255.0,255.0,255.0
252,12.600000000000001,31.66945939362531,23.186005861372337,-15.034511995113183,3.748220076052558,2.693806635665963,-0.6259376766663748,-0.5139940569191548,-0.37108975347872813,0.08583695094119621,0,70,255.0,255.0,255.0
253,12.65,31.85622383182372,23.320228549593576,-15.065700213094303,3.7222759912224923,2.6750252657795994,-0.6215636493080943,-0.5237693362835053,-0.38016504197582895,0.08912414339003442,0,70,255.0,255.0,255.0
254,12.700000000000001,32.04167884668142,23.453500825209883,-15.096665620716951,3.6958431424242075,2.65579013146838,-0.6170252623273714,-0.5335446156478563,-0.38924033047293016,0.09241133583887276,0,70,255.0,255.0,255.0
255,12.75,32.2258,23.5858,-15.1274,3.6689215296577062,2.6361012327323063,-0.6123225157242068,-0.5433198950122247,-0.3983156189700452,0.09569852828771008,0,70,255.0,255.0,255.0
256,12.8,32.40856251352856,23.717104943552183,-15.157896582226472,3.6414907497733546,2.6160520381404777,-0.6075423653472322,-0.5539113003618256,-0.40365216470308674,0.09550748679127441,0,70,255.0,255.0,255.0
257,12.850000000000001,32.58994024880621,23.847400756692608,-15.188154395735971,3.613530399621523,2.595736016261997,-0.6027717670450793,-0.5645027057114266,-0.4089887104361283,0.09531644529483874,0,70,255.0,255.0,255.0
258,12.9,32.76990672731959,23.976674098056936,-15.21817391813223,3.585040479202212,2.575153167096865,-0.5980107208177483,-0.5750941110610271,-0.41432525616916965,0.09512540379840306,0,70,255.0,255.0,255.0
259,12.950000000000001,32.94843547055531,24.104911626280845,-15.247955627018992,3.5560209885154204,2.5543034906450806,-0.593259226665239,-0.585685516410628,-0.4196618019022112,0.09493436230196739,0,70,255.0,255.0,255.0
260,13.0,33.1255,24.2321,-15.2775,3.526471927561149,2.5331869869066437,-0.5885172845875516,-0.5962769217602251,-0.42499834763526323,0.09474332080553349,0,70,255.0,255.0,255.0
261,13.05,33.30107437560118,24.358224777023885,-15.306806086339398,3.496425603992202,2.511737606310613,-0.5836991942088517,-0.6055760209976606,-0.43297687620595804,0.09798029434245863,0,70,255.0,255.0,255.0
262,13.100000000000001,33.475134811149864,24.483267111857252,-15.335867221942939,3.465914325461382,2.4898892992860473,-0.5787192551533056,-0.614875120235096,-0.4409554047766529,0.10121726787938377,0,70,255.0,255.0,255.0
263,13.15,33.647658058897946,24.60720705817868,-15.364675314376779,3.434938091968692,2.4676420658329477,-0.5735774674209134,-0.6241742194725313,-0.44893393334734744,0.1044542414163088,0,70,255.0,255.0,255.0
264,13.200000000000001,33.818620871097366,24.73002466966674,-15.393222271207081,3.4034969035141294,2.4449959059513127,-0.5682738310116747,-0.6334733187099667,-0.4569124619180423,0.10769121495323393,0,70,255.0,255.0,255.0
265,13.25,33.988,24.8517,-15.4215,3.371590760097696,2.4219508196411437,-0.5628083459255899,-0.6427724179473984,-0.46489099048875815,0.11092818849016517,0,70,255.0,255.0,255.0
266,13.3,34.15577198406674,24.97221434835229,-15.449501472415937,3.3392068342578125,2.3985815366170984,-0.5572448578173632,-0.6525846156479305,-0.469880330473027,0.11161133583889794,0,70,255.0,255.0,255.0
267,13.350000000000001,34.32191250659437,25.091553995878392,-15.47722391649228,3.3063322985329022,2.3749627865938403,-0.5516472123417,-0.6623968133484627,-0.47486967045729583,0.1122944831876307,0,70,255.0,255.0,255.0
268,13.4,34.486397037088615,25.20970646922835,-15.504665624360651,3.2729671529229662,2.3510945695713694,-0.5460154094986003,-0.6722090110489944,-0.47985901044156454,0.11297763053636345,0,70,255.0,255.0,255.0
269,13.450000000000001,34.64920104505525,25.326659295052213,-15.531824888152682,3.2391113974280032,2.326976885549684,-0.5403494492880636,-0.6820212087495267,-0.4848483504258334,0.11366077788509622,0,70,255.0,255.0,255.0
270,13.5,34.8103,25.4424,-15.5587,3.2047650320480146,2.3026097345287857,-0.5346493317100907,-0.6918334064500478,-0.4898376904101056,0.11434392523382897,0,70,255.0,255.0,255.0
271,13.55,34.96966968813185,25.556914629566972,-15.585288823996851,3.1699470589765006,2.2779042472209787,-0.528889374521696,-0.7008855164104952,-0.4983818019021656,0.11605436230195176,0,70,255.0,255.0,255.0
272,13.600000000000001,35.12728716247269,25.67018330462919,-15.611587512087947,3.1346764804069642,2.2527715543385685,-0.5230438954798953,-0.7099376263709426,-0.5069259133942255,0.11776479937007456,0,70,255.0,255.0,255.0
273,13.65,35.28312979274758,25.78218466490792,-15.637591788180618,3.098953296339406,2.2272116558815562,-0.5171128945846887,-0.7189897363313897,-0.5154700248862852,0.1194752364381973,0,70,255.0,255.0,255.0
274,13.700000000000001,35.43717494868165,25.892897350124436,-15.663297376182193,3.062777506773825,2.20122455184994,-0.5110963718360756,-0.7280418462918371,-0.5240141363783453,0.12118567350632009,0,70,255.0,255.0,255.0
275,13.75,35.5894,26.0023,-15.6887,3.0261491117102235,2.174810242243722,-0.5049943272340567,-0.7370939562522594,-0.5325582478703907,0.12289611057444283,0,70,255.0,255.0,255.0
276,13.8,35.73978126340584,26.110371933379835,-15.713795231596661,2.9890049298361676,2.1480094744990104,-0.4987976440958639,-0.7486733187099618,-0.5394724619180565,0.12497121495326485,0,70,255.0,255.0,255.0
277,13.850000000000001,35.8882908435149,26.21709518560487,-15.738578035155937,2.9512817798392263,2.120862996051916,-0.49249720573873,-0.7602526811676643,-0.5463866759657224,0.12704631933208688,0,70,255.0,255.0,255.0
278,13.9,36.03489979192105,26.322452471139982,-15.763043222916885,2.912979661719401,2.093370806902438,-0.48609301216265527,-0.7718320436253664,-0.553300890013388,0.12912142371090882,0,70,255.0,255.0,255.0
279,13.950000000000001,36.179579160218125,26.426426504450067,-15.787185607118555,2.87409857547669,2.0655329070505766,-0.4795850633676392,-0.7834114060830688,-0.5602151040610538,0.13119652808973084,0,70,255.0,255.0,255.0
280,14.0,36.3223,26.529,-15.811,2.8346385211110947,2.0373492964963336,-0.47297335935368223,-0.794990768540778,-0.5671293181087158,0.13327163246855278,0,70,255.0,255.0,255.0
281,14.05,36.46303405824479,26.630155236913716,-15.83448144961651,2.794641221678837,2.008793854782968,-0.4662720490948413,-0.8049012087495144,-0.575088350425903,0.1347807778850811,0,70,255.0,255.0,255.0
282,14.100000000000001,36.60175586346771,26.72987275295137,-15.857625947288303,2.7541484002361423,1.9798404614537426,-0.45949528156517394,-0.8148116489582509,-0.5830473827430902,0.13628992330160944,0,70,255.0,255.0,255.0
283,14.15,36.73844063956823,26.82813265053216,-15.880429720151845,2.713160056783012,1.9504891165086589,-0.4526430567646804,-0.824722089166987,-0.5910064150602772,0.13779906871813774,0,70,255.0,255.0,255.0
284,14.200000000000001,36.87306361044584,26.9249150320753,-15.902888995343593,2.6716761913194436,1.9207398199477148,-0.4457153746933602,-0.8346325293757234,-0.5989654473774644,0.13930821413466607,0,70,255.0,255.0,255.0
285,14.25,37.0056,27.0202,-15.925,2.6296968038454405,1.8905925717709127,-0.4387122353512138,-0.8445429695844631,-0.6069244796946549,0.14081735955119568,0,70,255.0,255.0,255.0
286,14.3,37.136024903615,27.113967918965308,-15.946758969937308,2.58721418344853,1.860063106369091,-0.4316341595247762,-0.8547618462919411,-0.6142541363781996,0.14230567350630524,0,70,255.0,255.0,255.0
287,14.350000000000001,37.26431290261427,27.206200202589674,-15.96816217569085,2.544220619216245,1.8291671581330917,-0.42448166800058307,-0.8649807229994191,-0.6215837930617442,0.14379398746141478,0,70,255.0,255.0,255.0
288,14.4,37.390438449806034,27.296878526731383,-15.989205896475736,2.500716111148588,1.7979047270629167,-0.41725476077863477,-0.8751995997068968,-0.6289134497452885,0.1452823014165243,0,70,255.0,255.0,255.0
289,14.450000000000001,37.51437599799854,27.385984567248727,-16.009886411507082,2.4567006592455556,1.7662758131585632,-0.4099534378589307,-0.8854184764143748,-0.6362431064288332,0.14677061537163383,0,70,255.0,255.0,255.0
290,14.5,37.6361,27.4735,-16.0302,2.4121742635071506,1.7342804164200336,-0.40257769924147147,-0.8956373531218702,-0.6435727631123918,0.14825892932674467,0,70,255.0,255.0,255.0
291,14.55,37.75558472729522,27.55940668722505,-16.050142670634266,2.367126044527027,1.7019297197406955,-0.3951113128060589,-0.9062914060830624,-0.6504551040611177,0.15039652808975482,0,70,255.0,255.0,255.0
292,14.600000000000001,37.87280372607523,27.64368723668995,-16.069709349948305,2.321545122898843,1.6692349060139209,-0.3875380464324958,-0.9169454590442544,-0.6573374450098436,0.15253412685276496,0,70,255.0,255.0,255.0
293,14.65,37.98773036120764,27.72632444254232,-16.08889469394521,2.2754314986226016,1.6361959752397113,-0.3798579001207824,-0.9275995120054461,-0.6642197859585693,0.15467172561577505,0,70,255.0,255.0,255.0
294,14.700000000000001,38.100337997560025,27.8073010989298,-16.10769335862808,2.228785171698299,1.6028129274180642,-0.3720708738709183,-0.9382535649666383,-0.6711021269072953,0.1568093243787852,0,70,255.0,255.0,255.0
295,14.75,38.2106,27.8866,-16.1261,2.181606142125938,1.569085762548982,-0.364176967682904,-0.9489076179278371,-0.6779844678560174,0.15894692314179704,0,70,255.0,255.0,255.0
296,14.8,38.318489787204115,27.964202932134498,-16.144109547525638,2.133897638443351,1.534954014668143,-0.3561925892509918,-0.9594325293756357,-0.6872854473775285,0.16042821413468628,0,70,255.0,255.0,255.0
297,14.850000000000001,38.423980993084804,28.04008765065055,-16.161718024515938,2.085662889188373,1.500357217811228,-0.3481341462694351,-0.9699574408234344,-0.6965864268990397,0.16190950512757554,0,70,255.0,255.0,255.0
298,14.9,38.52704730536341,28.11423090309935,-16.17892172774342,2.0369018943610078,1.4652953719782391,-0.3400016387382343,-0.9804823522712327,-0.7058874064205505,0.16339079612046473,0,70,255.0,255.0,255.0
299,14.950000000000001,38.627662411761364,28.186609437032107,-16.195716953980604,1.9876146539612503,1.4297684771691734,-0.3317950666573887,-0.9910072637190313,-0.7151883859420617,0.164872087113354,0,70,255.0,255.0,255.0
300,15.0,38.7258,28.2572,-16.2121,1.9378011679891047,1.3937765333840335,-0.3235144300268989,-1.0015321751668473,-0.7244893654635742,0.16635337810624362,0,70,255.0,255.0,255.0
301,15.05,38.821435323888316,28.32598158423697,-16.228067139263185,1.8875554016995735,1.357454221586723,-0.31515833018995304,-1.008298476414376,-0.7284031064288311,0.16789061537158442,0,70,255.0,255.0,255.0
302,15.100000000000001,38.91454990158559,28.39294216070787,-16.24361455198794,1.8369713203476656,1.3209362227411492,-0.3067253684897402,-1.0150647776619048,-0.732316847394088,0.16942785263692522,0,70,255.0,255.0,255.0
303,15.15,39.005126817338706,28.458071945060283,-16.258738395081103,1.7860489239333834,1.2842225368473144,-0.2982155449262606,-1.0218310789094331,-0.7362305883593446,0.170965089902266,0,70,255.0,255.0,255.0
304,15.200000000000001,39.09314915539455,28.521361152941793,-16.273434825449513,1.7347882124567227,1.2473131639052153,-0.28962885949951367,-1.028597380156962,-0.7401443293246015,0.1725023271676068,0,70,255.0,255.0,255.0
305,15.25,39.1786,28.5828,-16.2877,1.6831891859176875,1.2102081039148544,-0.2809653122095,-1.035363681404494,-0.7440580702898654,0.17403956443294755,0,70,255.0,255.0,255.0
306,15.3,39.26145451724265,28.64237233091762,-16.301529095421625,1.6307767547584056,1.1725250989849267,-0.2721660899892061,-1.061133564966762,-0.7632621269072181,0.17792932437880482,0,70,255.0,255.0,255.0
307,15.350000000000001,39.34165620057288,28.700036506517982,-16.314913367532302,1.5770758294210099,1.1338818912241315,-0.2631723797716193,-1.0869034485290299,-0.7824661835245708,0.18181908432466207,0,70,255.0,255.0,255.0
308,15.4,39.419140625281784,28.75574451665952,-16.327843091932166,1.522086409905503,1.0942784806324701,-0.2539841815567399,-1.1126733320912972,-0.8016702401419229,0.1857088442705192,0,70,255.0,255.0,255.0
309,15.450000000000001,39.49384336666046,28.809448351200714,-16.34030854422135,1.4658084962118805,1.0537148672099395,-0.2446014953445674,-1.138443215653565,-0.8208742967592756,0.18959860421637645,0,70,255.0,255.0,255.0
310,15.5,39.5657,28.8611,-16.3523,1.4082420883401467,1.0121910509565428,-0.2350243211351024,-1.1642130992158322,-0.8400783533766241,0.19348836416223314,0,70,255.0,255.0,255.0
311,15.55,39.63464660714111,28.91065229209254,-16.363807679050325,1.3494175792667737,0.9697573824735749,-0.2252493098532128,-1.1887672637190545,-0.8572683859420684,0.19751208711334667,0,70,255.0,255.0,255.0
312,15.600000000000001,39.70062129612293,28.95806141322022,-16.37482157788286,1.2893653619682395,0.9264642123623347,-0.21527311242376745,-1.2133214282222766,-0.8744584185075128,0.20153581006446022,0,70,255.0,255.0,255.0
313,15.65,39.763562681534175,29.003284388301633,-16.38533163719024,1.2280854364445464,0.8823115406228239,-0.20509572884676686,-1.237875592725498,-0.8916484510729565,0.20555953301557361,0,70,255.0,255.0,255.0
314,15.700000000000001,39.82340937796363,29.04627824225537,-16.39532779766508,1.1655778026956902,0.8372993672550394,-0.19471715912221016,-1.2624297572287202,-0.9088384836384009,0.20958325596668717,0,70,255.0,255.0,255.0
315,15.75,39.8801,29.087,-16.4048,1.1018424607216752,0.7914276922589843,-0.1841374032500982,-1.286983921731938,-0.926028516203842,0.21360697891780145,0,70,255.0,255.0,255.0
316,15.8,39.93359505419291,29.125422500712226,-16.413741788377088,1.038192928174455,0.745645371120772,-0.17357267059796325,-1.2589973801568348,-0.9052643293246286,0.20898232716759033,0,70,255.0,255.0,255.0
317,15.850000000000001,39.98394261493542,29.161581840601144,-16.422161120936256,0.9759427227059899,0.7009012593265203,-0.1632391705333389,-1.2310108385817315,-0.8845001424454153,0.2043576754173792,0,70,255.0,255.0,255.0
318,15.9,40.03121264858149,29.195529930133944,-16.43006955930688,0.9150918443162822,0.6571953568762307,-0.1531369030562254,-1.2030242970066292,-0.8637359555662028,0.19973302366716827,0,70,255.0,255.0,255.0
319,15.950000000000001,40.075475121485034,29.22731867977783,-16.437478665118338,0.8556402930053275,0.6145276637699003,-0.14326586816662212,-1.1750377554315259,-0.8429717686869893,0.19510837191695715,0,70,255.0,255.0,255.0
320,16.0,40.1168,29.257,-16.4444,0.79758806877313,0.5728981800075319,-0.13362606586452977,-1.14705121385642,-0.8222075818077794,0.19048372016674597,0,70,255.0,255.0,255.0
321,16.05,40.15525397608725,29.284622505058554,-16.450844367441334,0.740738708035379,0.5321091330433544,-0.12417200775494977,-1.1269232156535904,-0.8093542967593015,0.18767860421644844,0,70,255.0,255.0,255.0
322,16.1,40.19089064413538,29.310221624375213,-16.456819538372127,0.6848957472077695,0.4919627503316006,-0.11485820544288466,-1.1067952174507607,-0.7965010117108235,0.1848734882661509,0,70,255.0,255.0,255.0
323,16.150000000000002,40.22376032413987,29.33382949116259,-16.462332525582244,0.6300591862903013,0.4524590318722708,-0.10568465892833442,-1.0866672192479312,-0.7836477266623456,0.18206837231585338,0,70,255.0,255.0,255.0
324,16.2,40.25391333609623,29.35547823863331,-16.46739034186158,0.5762290252829785,0.41359797766536766,-0.0966513682112997,-1.066539221045103,-0.7707944416138686,0.17926325636555607,0,70,255.0,255.0,255.0
325,16.25,40.2814,29.3752,-16.472,0.5234052641857934,0.3753795877108857,-0.08775833329177919,-1.0464112228422744,-0.757941156565392,0.1764581404152591,0,70,255.0,255.0,255.0
326,16.3,40.30626344145807,29.393023479053557,-16.47616794185759,0.4711562396840187,0.33759809670578983,-0.07897129838223009,-1.0435497572286827,-0.7533184836384205,0.17502325596669993,0,70,255.0,255.0,255.0
327,16.35,40.32851800852308,29.40896366189802,-16.479898325575263,0.4190502884629236,0.3000477393470426,-0.07025600769510894,-1.040688291615091,-0.7486958107114491,0.1735883715181408,0,70,255.0,255.0,255.0
328,16.400000000000002,40.34817085485904,29.423032105215704,-16.48319473836414,0.3670874105225081,0.2627285156346439,-0.06161246123041576,-1.0378268260014993,-0.7440731377844776,0.17215348706958164,0,70,255.0,255.0,255.0
329,16.45,40.365229134130004,29.43524036568892,-16.486060767435347,0.3152676058627759,0.22564042556859637,-0.05304065898815114,-1.0349653603879079,-0.7394504648575065,0.17071860262102262,0,70,255.0,255.0,255.0
330,16.5,40.3797,29.4456,-16.4885,0.26359087448371954,0.18878346914889485,-0.04454060096831388,-1.0321038947743153,-0.7348277919305348,0.16928371817246374,0,70,255.0,255.0,255.0
331,16.55,40.391620258080444,29.454141978727215,-16.490519865128306,0.21383633322857215,0.15332248013345887,-0.03634279871608124,-0.9580777554315516,-0.6836117686868843,0.1586283719168373,0,70,255.0,255.0,255.0
332,16.6,40.40114532177231,29.460974928032712,-16.49214315932682,0.16778309894056304,0.12042229228020544,-0.028677763776629926,-0.8840516160887879,-0.6323957454432338,0.14797302566121084,0,70,255.0,255.0,255.0
333,16.650000000000002,40.40846025642396,29.466226887974603,-16.49339652096118,0.1254311716196921,0.09008290558913458,-0.02154549614995994,-0.8100254767460241,-0.5811797221995835,0.1373176794055844,0,70,255.0,255.0,255.0
334,16.7,40.41375012738373,29.470025898610995,-16.494306588397027,0.08678055126596207,0.06230432006024815,-0.014945995836071741,-0.7359993374032656,-0.5299636989559366,0.1266623331499587,0,70,255.0,255.0,255.0
335,16.75,40.4172,29.4725,-16.4949,0.051831237879367394,0.03708653569354224,-0.00887926283496438,-0.6619731980605018,-0.47874767571228605,0.11600698689433232,0,70,255.0,255.0,255.0
336,16.8,40.41903232622015,29.473805406037577,-16.495210997629187,0.022826427401724497,0.016119982760386346,-0.003801506753466849,-0.49821922104519767,-0.3599144416139379,0.08710325636556601,0,70,255.0,255.0,255.0
337,16.85,40.419619104387685,29.474211025971123,-16.495304237117455,0.0020093157748469204,0.001095091532147945,-0.00016893719840765454,-0.3344652440298935,-0.24108120751558967,0.05819952583679971,0,70,255.0,255.0,255.0
338,16.900000000000002,40.41936971944514,29.474013942885875,-16.49525197779113,-0.01062009700126533,-0.00798813799117297,0.0020184458302132027,-0.17071126701458939,-0.12224797341724147,0.029295795308033404,0,70,255.0,255.0,255.0
339,16.95,40.41869355633507,29.473511239867086,-16.49512647897654,-0.015061810926612226,-0.011129705809576361,0.0027606423323957244,-0.006957289999296901,-0.0034147393189017383,0.00039206477926914673,0,70,255.0,255.0,255.0
340,17.0,40.418,29.473,-16.495,-0.011315826001194436,-0.008329611923062712,0.0020576523081400153,0.15679668701600707,0.11541849477944637,-0.028511665749497168,0,70,255.0,255.0,255.0
341,17.05,40.417613637038954,29.472715597122473,-16.49492974435496,-0.004470042835490773,-0.003290411175014503,0.0008128257299307976,0.11703463961213556,0.08614953514247915,-0.021281397378870838,0,70,255.0,255.0,255.0
342,17.1,40.41751986067695,29.4726465680828,-16.494912692203368,0.0003876379600192851,0.00028534159118532437,-7.048742974709841e-05,0.07727259220826403,0.056880575505511934,-0.014051129008244507,0,70,255.0,255.0,255.0
343,17.150000000000002,40.41761926579546,29.472719740481892,-16.49493076787429,0.0032572163853357393,0.0023976463755367725,-0.0005922871708936731,0.037510544804392504,0.027611615868544714,-0.006820860637618175,0,70,255.0,255.0,255.0
344,17.2,40.41781244727597,29.47286194192065,-16.49496589569681,0.004138692440458603,0.0030465031780398406,-0.0007525734935089276,-0.0022515025994762072,-0.00165734376842043,0.0004094077330076412,0,70,255.0,255.0,255.0
345,17.25,40.418,29.473,-16.495,0.003032066125387986,0.002231911998694628,-0.0005513463975928847,-0.04201355000334772,-0.030926303405387642,0.007639676103633965,0,70,255.0,255.0,255.0
346,17.3,40.41810352562402,29.473076205472534,-16.49501882495098,0.0011977439402242353,0.0008816619396626886,-0.00021779616625454572,-0.031359337403201265,-0.02308369895588916,0.005702333149899405,0,70,255.0,255.0,255.0
347,17.35,40.418128652904514,29.473094701697672,-16.495023394069086,-0.00010386761493218514,-7.64578968943209e-05,1.8886917397063855e-05,-0.020705124803054815,-0.015241094506390676,0.0037649901961648445,0,70,255.0,255.0,255.0
348,17.400000000000002,40.41810201737302,29.47307509518655,-16.495018550711702,-0.000872768540081276,-0.0006424475109764001,0.00015870285336194403,-0.010050912202908366,-0.007398490056892193,0.001827647242430285,0,70,255.0,255.0,255.0
349,17.45,40.41805025456102,29.473036992450282,-16.495009138236213,-0.0011089588352230376,-0.0008163069025835515,0.0002016516416400953,0.0006033003972373344,0.00044411439260573504,-0.00010969571130413792,0,70,255.0,255.0,255.0
350,17.5,40.418,29.473,-16.495,-0.0008124385003575068,-0.0005980360717158005,0.00014773328223152376,0.011257512997383777,0.008286718842104213,-0.0020470386650386966,0,70,255.0,255.0,255.0
351,17.55,40.41797226046498,29.472979580987396,-16.49499495584112,-0.00032093292540616783,-0.00023623658363625263,5.835893508738544e-05,0.008402710000669503,0.006185260681077498,-0.0015279352207267854,0,70,255.0,255.0,255.0
352,17.6,40.417965527704965,29.4729746251265,-16.49499373152029,2.7832499709455388e-05,2.0489996391957982e-05,-5.060239841156947e-06,0.005547907003955228,0.004083802520050782,-0.0010088317764148742,0,70,255.0,255.0,255.0
353,17.650000000000002,40.41797266471245,29.472979878771902,-16.4949950292789,0.0002338577749893628,0.0001721436683688313,-4.252424255410342e-05,0.0026931040072409526,0.001982344359024067,-0.0004897283321029628,0,70,255.0,255.0,255.0
354,17.7,40.417986534479965,29.472990088278202,-16.49499755135834,0.00029714290043355543,0.00021872443229436784,-5.403307305145406e-05,-0.00016169898947311807,-0.00011911380200249969,2.937511220891132e-05,0,70,255.0,255.0,255.0
355,17.75,40.418,29.473,-16.495,0.00021768787604204134,0.0001602322881685744,-3.9586731333210445e-05,-0.003016501986187393,-0.0022205719630292143,0.0005484785565208228,0,70,255.0,255.0,255.0
356,17.8,40.41800743251606,29.473005470577867,-16.49500135168455,8.598776140043603e-05,6.32843948823218e-05,-1.5639574094996104e-05,-0.002251502599476745,-0.001657343768420835,0.0004094077330077373,0,70,255.0,255.0,255.0
357,17.85,40.41800923627563,29.473006797796316,-16.49500167984976,-7.462383905636316e-06,-5.502088673511434e-06,1.35404196756386e-06,-0.0014865032127660965,-0.0010941155738124556,0.0002703369094946517,0,70,255.0,255.0,255.0
358,17.900000000000002,40.41800732377716,29.473005389725827,-16.495001332172706,-6.266255987617573e-05,-4.6127162498925314e-05,1.1394116854469453e-05,-0.0007215038260554485,-0.0005308873792040762,0.00013126608598156616,0,70,255.0,255.0,255.0
359,17.95,40.41800360751913,29.473002654436893,-16.495000656330433,-7.961276651118239e-05,-5.859082659391996e-05,1.4480650565720697e-05,4.349556065514574e-05,3.234081540426327e-05,-7.804737531509533e-06,0,70,255.0,255.0,255.0
360,18.0,40.418,29.473,-16.495,-5.831300381065854e-05,-4.289308095849704e-05,1.0613643101318033e-05,0.0008084949473657938,0.0005955690100126426,-0.0001468755610445951,0,70,255.0,255.0,255.0
361,18.05,40.41799800947076,29.472998536701127,-16.494999637420694,-2.30181201955763e-05,-1.6900995893034588e-05,4.199361292598963e-06,0.0006033003972374755,0.00044411439260584064,-0.00010969571130416407,0,70,255.0,255.0,255.0
362,18.1,40.417997527192526,29.47299818368823,-16.494999549080667,2.0170359130898758e-06,1.5183583020876606e-06,-3.559280290985292e-07,0.0003981058471091573,0.0002926597751990387,-7.251586156373304e-05,0,70,255.0,255.0,255.0
363,18.150000000000002,40.4179980401789,29.472998562324772,-16.494999642030287,1.6792464515339975e-05,1.2364981626869707e-05,-3.0522248637744416e-06,0.00019291129698083905,0.00014120515779223678,-3.533601182330201e-05,0,70,255.0,255.0,255.0
364,18.2,40.417999035443515,29.47299929397421,-16.49499982331994,2.13081656111741e-05,1.5638874081311577e-05,-3.889529211428787e-06,-1.2283253147464665e-05,-1.0249459614554359e-05,1.8438379171263793e-06,0,70,255.0,255.0,255.0
365,18.25,40.418,29.473,-16.495,1.556413920059285e-05,1.1340035665413751e-05,-2.86784107206168e-06,-0.0002174778032757827,-0.0001617040770213563,3.902368765755738e-05,0,70,255.0,255.0,255.0
366,18.3,40.418000529600874,29.473000382617634,-16.495000098632687,6.0847193818692e-06,4.319588689816547e-06,-1.1578710753997491e-06,-0.00016169898947315797,-0.00011911380200252792,2.9375112208918876e-05,0,70,255.0,255.0,255.0
367,18.35,40.418000654954284,29.47300046745076,-16.495000123827587,-6.057597467231752e-07,-5.713445348392097e-07,6.96701488302497e-08,-0.00010592017567053323,-7.652352698369954e-05,1.972653676028038e-05,0,70,255.0,255.0,255.0
368,18.400000000000002,40.418000515507245,29.473000360975078,-16.49500009970615,-4.507298185184275e-06,-3.332764008553518e-06,8.147826006283165e-07,-5.0141361867908515e-05,-3.3933251964871156e-05,1.0077961311641877e-05,0,70,255.0,255.0,255.0
369,18.45,40.41800025070681,29.47300016966626,-16.49500005038981,-5.6198959335141165e-06,-3.964669731326405e-06,1.0774662799944502e-06,5.637451934712269e-06,8.657023053954167e-06,4.293858630040638e-07,0,70,255.0,255.0,255.0
370,18.5,40.418,29.473,-16.495,-3.943552991712865e-06,-2.4670617031579667e-06,8.577211869286877e-07,6.141626573733696e-05,5.124729807278254e-05,-9.219189585634437e-06,0,70,255.0,255.0,255.0
371,18.55,40.417999872125726,29.472999932828333,-16.49499996804857,-1.3207573319004962e-06,-3.7735886623159877e-07,4.321230090000343e-07,4.349556065515628e-05,3.2340815404270985e-05,-7.804737531511456e-06,0,70,255.0,255.0,255.0
372,18.6,40.41799985299035,29.472999946508708,-16.49499995560899,4.060030738028257e-07,7.670198372691781e-07,7.724743377753097e-08,2.5574855572975608e-05,1.343433273575943e-05,-6.390285477388475e-06,0,70,255.0,255.0,255.0
373,18.650000000000002,40.417999897792114,29.472999993774916,-16.49499995914512,1.2367282253970998e-06,9.66074407344363e-07,-2.0690553873882232e-07,7.654150490794934e-06,-5.4721499327521246e-06,-4.9758334232654945e-06,0,70,255.0,255.0,255.0
374,18.7,40.417999961729244,29.47300002736075,-16.494999975120834,1.1714181228823659e-06,2.1980484399404302e-07,-4.203359085490127e-07,-1.0266554591384467e-05,-2.4378632601262338e-05,-3.561381369142614e-06,0,70,255.0,255.0,255.0
375,18.75,40.418,29.473,-16.495,2.1007276625861054e-07,-1.4717888527818839e-06,-5.630436756530709e-07,-2.818725967356515e-05,-4.328511526977387e-05,-2.146929315019631e-06,0,70,255.0,255.0,255.0
376,18.8,40.41799998189624,29.47299988606902,-16.495000029173028,-8.016900542672117e-07,-2.8101532248901503e-06,-5.706209606003882e-07,-1.2283253147467165e-05,-1.0249459614556039e-05,1.8438379171269442e-06,0,70,255.0,255.0,255.0
377,18.85,40.417999933084324,29.47299974651439,-16.495000053736458,-1.0182525484881234e-06,-2.496734814237502e-06,-3.786598839403738e-07,3.6207533786308212e-06,2.2786196040661794e-05,5.83460514927352e-06,0,70,255.0,255.0,255.0
378,18.900000000000002,40.41799989332432,29.47299966392525,-16.495000063713373,-4.396147164041245e-07,-5.315336208239372e-07,1.2839554326972106e-08,1.952475990472881e-05,5.582185169587964e-05,9.825372381420094e-06,0,70,255.0,255.0,255.0
379,18.95,40.4179999023762,29.47299972089074,-16.495000049126865,9.34223441984659e-07,3.085450355350226e-06,6.038773542016005e-07,3.5428766430825666e-05,8.885750735109513e-05,1.3816139613566386e-05,0,70,255.0,255.0,255.0
380,19.0,40.418,29.473,-16.495,3.1032619266784227e-06,8.354217114285502e-06,1.3944535156835956e-06,5.133277295692365e-05,0.00012189316300631291,1.780690684571297e-05,0,70,255.0,255.0,255.0
381,19.05,40.41800020028934,29.473000522895582,-16.494999915259324,4.527517548969344e-06,1.16179717657922e-05,1.8503608334015182e-06,5.6374519347123845e-06,8.657023053953151e-06,4.293858630036843e-07,0,70,255.0,255.0,255.0
382,19.1,40.41800041467232,29.473001067433724,-16.494999829445188,3.6670071201496684e-06,9.219919419680829e-06,1.4373921019839643e-06,-4.005786908749888e-05,-0.00010457911689840661,-1.69481351197056e-05,0,70,255.0,255.0,255.0
383,19.150000000000002,40.41800052891062,29.473001350524076,-16.494999786001383,5.217306402193983e-07,1.160060075951391e-06,1.5554732143093358e-07,-8.575319010971015e-05,-0.00021781525685076635,-3.432565610241489e-05,0,70,255.0,255.0,255.0
384,19.200000000000003,40.41800042876595,29.473001089076284,-16.49499982837172,-4.908311890821468e-06,-1.2561606265396119e-05,-1.9951735082575734e-06,-0.0001314485111319214,-0.0003310513968031261,-5.170317708512417e-05,0,70,255.0,255.0,255.0
385,19.25,40.418,29.473,-16.495,-1.2623120472972302e-05,-3.194507960436012e-05,-5.014770387081312e-06,-0.0001771438321541295,-0.0004442875367554778,-6.908069806783223e-05,0,70,255.0,255.0,255.0
386,19.3,40.41799921694638,29.47299802234864,-16.495000309789678,-1.7308380141610167e-05,-4.3661733838278644e-05,-6.830822373005686e-06,-1.026655459138238e-05,-2.4378632601256564e-05,-3.5613813691416586e-06,0,70,255.0,255.0,255.0
387,19.35,40.41799840822638,29.472995983750703,-16.495000628482806,-1.3649775932110557e-05,-3.4382942864485804e-05,-5.3709085239954825e-06,0.00015661072297136475,0.0003955302715529647,6.195793532954891e-05,0,70,255.0,255.0,255.0
388,19.400000000000002,40.41799799103318,29.472994933978438,-16.4950007922811,-1.6473078444734706e-06,-4.108706682981605e-06,-6.350288400507054e-07,0.00032348800053411185,0.000815439175707186,0.00012747725202823945,0,70,255.0,255.0,255.0
389,19.450000000000003,40.41799838256,29.47299592280412,-16.495000637386266,1.8699024121301092e-05,4.716097470623397e-05,7.376816678828644e-06,0.000490365278096859,0.0012353480798614072,0.00019299656872693005,0,70,255.0,255.0,255.0
390,19.5,40.418,29.473,-16.495,4.738921996521079e-05,0.00011942610130315496,1.8664628032641652e-05,0.0006572425556595942,0.0016552569840155985,0.00025851588542561603,0,70,255.0,255.0,255.0
391,19.55,40.418002931925116,29.473007387709846,-16.49499884558197,6.470600301747131e-05,0.00016302896358732236,2.5472928658621227e-05,3.542876643081703e-05,8.885750735107339e-05,1.3816139613562998e-05,0,70,255.0,255.0,255.0
392,19.6,40.41800595242214,29.47301499756346,-16.494997656623593,5.093209660829254e-05,0.00012831185203826238,2.0046241993997968e-05,-0.0005863850227979602,-0.0014775419693134517,-0.00023088360619849004,0,70,255.0,255.0,255.0
393,19.650000000000002,40.41800750695661,29.473018913562154,-16.49499704487423,6.06750073767445e-06,1.527476665597505e-05,2.384568038771893e-06,-0.0012081988120267373,-0.003043941445977977,-0.000475583352010543,0,70,255.0,255.0,255.0
394,19.700000000000003,40.41800604099406,29.473015219707232,-16.49499762208324,-6.988778459438293e-05,-0.00017608229255953968,-2.7512093207057012e-05,-0.0018300126012555146,-0.0046103409226425016,-0.0007202830978225961,0,70,255.0,255.0,255.0
395,19.75,40.418,29.473,-16.495,-0.00017693375938787086,-0.0004457593256082597,-6.96437417434853e-05,-0.002451826390484247,-0.006176740399306914,-0.0009649828436346314,0,70,255.0,255.0,255.0
396,19.8,40.41798905535316,29.47297242681197,-16.495004307882446,-0.0002415156319282751,-0.0006084541205110108,-9.50608922614792e-05,-0.0001314485111318861,-0.0003310513968030355,-5.170317708511009e-05,0,70,255.0,255.0,255.0
397,19.85,40.417977782085046,29.472944025995453,-16.49500874502284,-0.00019007861050105964,-0.0004788644652885637,-7.481405945199638e-05,0.002188929368220475,0.005514637605700843,0.0008615764894644112,0,70,255.0,255.0,255.0
398,19.900000000000002,40.41797198114034,29.472929411772945,-16.495011028222006,-2.2622695106224453e-05,-5.699035994091847e-05,-8.90324331503684e-06,0.004509307247572837,0.011360326608204723,0.0017748561560139322,0,70,255.0,255.0,255.0
399,19.950000000000003,40.41797745346376,29.472943198366956,-16.49500887428078,0.00026085211425623056,0.0006571681955319247,0.00010267155614939941,0.006829685126925197,0.0172060156107086,0.002688135822563454,0,70,255.0,255.0,255.0
400,20.0,40.418,29.473,-16.495,0.0006603458175862726,0.0016636112011298838,0.00025991033894129953,0.009150063006277392,0.02305170461321206,0.003601415489112911,0,70,255.0,255.0,255.0
401,20.05,40.41804084666225,29.473102905042268,-16.494983922888242,0.000901356524695629,0.0022707875184567205,0.0003547706403872956,0.0004903652780967258,0.0012353480798610733,0.00019299656872687806,0,70,255.0,255.0,255.0
402,20.1,40.41808291923769,29.473208898454732,-16.49496736328506,0.0007093823453959458,0.001787146009115993,0.0002792099958139876,-0.00816933245008394,-0.020581008453489914,-0.003215422351659155,0,70,255.0,255.0,255.0
403,20.150000000000002,40.418104568482015,29.473263439346066,-16.494958842237764,8.442327968722317e-05,0.0002126866731076999,3.32284052213755e-05,-0.016829030178264606,-0.04239736498684091,-0.006623841272045188,0,70,255.0,255.0,255.0
404,20.200000000000003,40.41808414515089,29.473211986824936,-16.494966880793644,-0.0009735206724305391,-0.002452590489568158,-0.0003831741313905408,-0.025488727906445272,-0.06421372152019189,-0.010032260192431221,0,70,255.0,255.0,255.0
405,20.25,40.418,29.473,-16.495,-0.0024644495109572193,-0.0062086854789112755,-0.0009699976140217129,-0.03414842563462532,-0.08603007805354136,-0.01344067911281701,0,70,255.0,255.0,255.0
406,20.3,40.41784755799783,29.472615953018956,-16.495060000564585,-0.0033639104668542405,-0.008474695953315873,-0.0013240216692877033,-0.001830012601255017,-0.0046103409226412595,-0.0007202830978223999,0,70,255.0,255.0,255.0
407,20.35,40.41769054096417,29.472220380185608,-16.495121801836916,-0.002647450771082723,-0.006669719571175408,-0.0010420259238039537,0.030488400432115287,0.07680939620825884,0.01200011291717221,0,70,255.0,255.0,255.0
408,20.400000000000002,40.41760974493159,29.472016830842783,-16.495153602826953,-0.0003150704236426667,-0.000793756332489879,-0.00012401037757046483,0.0628068134654856,0.15822913333915894,0.024720508932166818,0,70,255.0,255.0,255.0
409,20.450000000000003,40.41768596593268,29.472208854333303,-16.49512360254466,0.003633230575465928,0.009153193762740708,0.0014300249694127634,0.0951252264988559,0.23964887047005906,0.03744090494716143,0,70,255.0,255.0,255.0
410,20.5,40.418,29.473,-16.495,0.009197452226242605,0.02317113071451522,0.0036200801171455523,0.12744363953222393,0.32106860760095324,0.05016130096215512,0,70,255.0,255.0,255.0
411,20.55,40.418568921346385,29.474433282881897,-16.494776074853416,0.012554285342721336,0.03162799629480677,0.004941316036763517,0.006829685126923363,0.01720601561070395,0.0026881358225627205,0,70,255.0,255.0,255.0
412,20.6,40.4191549169056,29.47590958080282,-16.494545429367278,0.00988042073893495,0.024891732275585637,0.003888893699401829,-0.1137842692783772,-0.28665657637954534,-0.04478502931702968,0,70,255.0,255.0,255.0
413,20.650000000000002,40.41945645179161,29.476669237282795,-16.494426746454426,0.0011758584148834489,0.002962338656851818,0.00046281310506048577,-0.23439822368367774,-0.5905191683697947,-0.09225819445662206,0,70,255.0,255.0,255.0
414,20.700000000000003,40.41917199111842,29.47595259584185,-16.49453870902772,-0.013559401629433157,-0.03416018456139468,-0.005336925746260511,-0.35501217808897834,-0.8943817603600439,-0.13973135959621447,0,70,255.0,255.0,255.0
415,20.75,40.418,29.473,-16.495,-0.0343253593940132,-0.0864758373791496,-0.013510322854560495,-0.4756261324942699,-1.198244352350271,-0.1872045247358034,0,70,255.0,255.0,255.0
416,20.8,40.4155447566166,29.46681171545345,-16.495967700021755,-0.06677323090403126,-0.16838928922591295,-0.02636124247776689,-0.8222887279064341,-2.0782937215202155,-0.32683226019244493,0,70,255.0,255.0,255.0
417,20.85,40.411033791413416,29.455427696603103,-16.497752480693993,-0.11655423218465778,-0.2943052095311741,-0.04619354887380546,-1.1689513233185984,-2.95834309069016,-0.4664599956490865,0,70,255.0,255.0,255.0
418,20.900000000000002,40.40360044790195,29.43664782002602,-16.50070341135535,-0.18366836323589278,-0.4642235982949331,-0.0730072420426762,-1.515613918730763,-3.8383924598601045,-0.6060877311057281,0,70,255.0,255.0,255.0
419,20.950000000000003,40.392378069593654,29.408271962299295,-16.505169561344474,-0.2681156240577362,-0.67814445551719,-0.10680232198437914,-1.8622765141429272,-4.7184418290300485,-0.7457154665623696,0,70,255.0,255.0,255.0
420,21.0,40.3765,29.3681,-16.5115,-0.3698960146501803,-0.9360677811979248,-0.14757878869891108,-2.2089391095550654,-5.598491198199929,-0.8853432020190011,0,70,255.0,255.0,255.0
421,21.05,40.35528965218723,29.3144158553043,-16.51996672505957,-0.4776053617265871,-1.2089508393911739,-0.19071234612570603,-2.0994347735011454,-5.316831129529883,-0.8399990950527718,0,70,255.0,255.0,255.0
422,21.1,40.328830717440724,29.24743963278477,-16.530533447856765,-0.5798394920002978,-1.4677508941509207,-0.23157869820418944,-1.989930437447225,-5.035171060859838,-0.7946549880865426,0,70,255.0,255.0,255.0
423,21.150000000000002,40.297396956600586,29.167875482613095,-16.543086808124183,-0.6765984054713124,-1.7124679454771647,-0.2701778449343614,-1.8804261013933048,-4.753510992189793,-0.7493108811203133,0,70,255.0,255.0,255.0
424,21.200000000000003,40.261262130506964,29.076427554960944,-16.5575134455944,-0.7678821021396309,-1.9431019933699065,-0.30650978631622183,-1.7709217653393847,-4.471850923519748,-0.7039667741540839,0,70,255.0,255.0,255.0
425,21.25,40.2207,28.9738,-16.5737,-0.8536905820052474,-2.159653037829131,-0.3405745223497685,-1.6614174292854678,-4.190190854849714,-0.6586226671878581,0,70,255.0,255.0,255.0
426,21.3,40.175938234634465,28.86057686332935,-16.591552599739977,-0.9367893221896101,-2.3693273532093775,-0.37354137301937274,-1.6625321780889926,-4.196781760360036,-0.6600513595962951,0,70,255.0,255.0,255.0
427,21.35,40.1270201388237,28.736861772257804,-16.611055327878944,-1.0199437998141492,-2.5793312138651405,-0.40657965830939896,-1.6636469268925176,-4.203372665870358,-0.6614800520047321,0,70,255.0,255.0,255.0
428,21.400000000000002,40.07394292569571,28.602638249521576,-16.632211756147925,-1.103154014878864,-2.7896646197964197,-0.43968937821984694,-1.6647616756960424,-4.20996357138068,-0.6629087444131693,0,70,255.0,255.0,255.0
429,21.450000000000003,40.01670380837848,28.4578898178569,-16.655025456277933,-1.1864199673837557,-3.0003275710032145,-0.47287053275071683,-1.6658764244995674,-4.216554476891002,-0.6643374368216063,0,70,255.0,255.0,255.0
430,21.5,39.9553,28.3026,-16.6795,-1.2697416573288172,-3.211320067485511,-0.5061231219020061,-1.6669911733030798,-4.223145382401334,-0.6657661292300414,0,70,255.0,255.0,255.0
431,21.55,39.88974060927492,28.136784691378296,-16.70563407598053,-1.3524053495149673,-3.4206997477713,-0.5391541617968167,-1.6395565141428767,-4.152041829030093,-0.6554754665623664,0,70,255.0,255.0,255.0
432,21.6,39.82008232726447,27.96058927818401,-16.73340684062746,-1.433697308743107,-3.6265242503885267,-0.5716706685582438,-1.612121854982674,-4.080938275658851,-0.6451848038946913,0,70,255.0,255.0,255.0
433,21.650000000000002,39.74639374061657,27.77419151930058,-16.762792567284126,-1.513617535013237,-3.8287935753371904,-0.6036726421862868,-1.5846871958224709,-4.00983472228761,-0.6348941412270164,0,70,255.0,255.0,255.0
434,21.700000000000003,39.66874343597911,27.57776917361143,-16.793765529293864,-1.5921660283253567,-4.027507722617293,-0.6351600826809463,-1.557252536662268,-3.938731168916368,-0.6246034785593414,0,70,255.0,255.0,255.0
435,21.75,39.5872,27.3715,-16.8263,-1.6693427886794603,-4.222666692228819,-0.6661329900422196,-1.5298178775020617,-3.867627615545125,-0.6143128158916662,0,70,255.0,255.0,255.0
436,21.8,39.501828128265885,27.15555157115747,-16.86037109633792,-1.7453812797505008,-4.414881655705445,-0.6966419797933627,-1.5117217653395163,-3.82097092351977,-0.6060467741540425,0,70,255.0,255.0,255.0
437,21.85,39.41267695211842,26.93005071500614,-16.895957309611223,-1.820514965213414,-4.604763784580802,-0.7267376674576247,-1.493625653176971,-3.774314231494415,-0.5977807324164188,0,70,255.0,255.0,255.0
438,21.900000000000002,39.319791711838015,26.69511407327607,-16.933037974715564,-1.8947438450682001,-4.7923130788548916,-0.7564200530350055,-1.4755295410144256,-3.7276575394690603,-0.5895146906787951,0,70,255.0,255.0,255.0
439,21.950000000000003,39.22321764770506,26.45085828769733,-16.971592426546607,-1.9680679193148587,-4.977529538527714,-0.7856891365255051,-1.4574334288518802,-3.6810008474437055,-0.5812486489411716,0,70,255.0,255.0,255.0
440,22.0,39.123,26.1974,-17.0116,-2.040487187953385,-5.160413163599254,-0.8145449179291214,-1.4393373166893326,-3.6343441554183684,-0.5729826072035484,0,70,255.0,255.0,255.0
441,22.05,39.01918767766155,25.934864223991813,-17.053039138667803,-2.111781531483106,-5.340461629406988,-0.8429339190297515,-1.4124364244994692,-3.5675944768908896,-0.562577436821638,0,70,255.0,255.0,255.0
442,22.1,38.91184426426184,25.6634094617914,-17.09588472092766,-2.181730830403334,-5.517172611288348,-0.870802661611286,-1.3855355323096055,-3.500844798363411,-0.5521722664397276,0,70,255.0,255.0,255.0
443,22.150000000000002,38.80103701203137,25.383202587595076,-17.140110733853614,-2.2503350847140684,-5.690546109243334,-0.898151145673725,-1.358634640119742,-3.434095119835932,-0.5417670960578171,0,70,255.0,255.0,255.0
444,22.200000000000003,38.68683317320059,25.09441047559916,-17.185691164519717,-2.31759429441531,-5.860582123271946,-0.9249793712170685,-1.3317337479298785,-3.367345441308453,-0.5313619256759068,0,70,255.0,255.0,255.0
445,22.25,38.5693,24.7972,-17.2326,-2.3835084595070533,-6.027280653374173,-0.9512873382413147,-1.3048328557400062,-3.300595762780979,-0.5209567552939944,0,70,255.0,255.0,255.0
446,22.3,38.448513161087924,24.491759532875257,-17.280807548990882,-2.447572594317108,-6.189351826666608,-0.976854344087647,-1.2577325366621437,-3.1822511689163546,-0.5017234785592846,0,70,255.0,255.0,255.0
447,22.35,38.32458199083418,24.178363437828217,-17.330269406678156,-2.5092817131732694,-6.345505770265813,-1.001459686097244,-1.2106322175842814,-3.06390657505173,-0.4824902018245746,0,70,255.0,255.0,255.0
448,22.400000000000002,38.19762424003648,23.85730757634355,-17.380937489869993,-2.568635816075538,-6.495742484171785,-1.025103364270105,-1.163531898506419,-2.9455619811871054,-0.46325692508986466,0,70,255.0,255.0,255.0
449,22.450000000000003,38.06775765949252,23.528887809905918,-17.432763715374556,-2.625634903023913,-6.6400619683845274,-1.047785378606231,-1.1164315794285566,-2.8272173873224804,-0.44402364835515473,0,70,255.0,255.0,255.0
450,22.5,37.9351,23.1934,-17.4857,-2.680278974018391,-6.778464222904028,-1.06950572910562,-1.0693312603506904,-2.7088727934578785,-0.4247903716204444,0,70,255.0,255.0,255.0
451,22.55,37.79976127798677,22.851121644507145,-17.53970186536869,-2.7330320912484587,-6.912051063926572,-1.0904807046196603,-1.040793428851963,-2.634600847443838,-0.4142086489411506,0,70,255.0,255.0,255.0
452,22.6,37.661820572401396,22.50225678689568,-17.594739252359737,-2.784358316903589,-7.041924307648416,-1.1109265939997357,-1.0122555973532357,-2.5603289014297976,-0.4036269262618568,0,70,255.0,255.0,255.0
453,22.650000000000002,37.521349227822654,22.14699110703064,-17.650785706666433,-2.8342576509837833,-7.168083954069556,-1.1308433972458465,-0.9837177658545082,-2.4860569554157577,-0.393045203582563,0,70,255.0,255.0,255.0
454,22.700000000000003,37.37841858882926,21.785510284777057,-17.70781477398209,-2.8827300934890414,-7.2905300031899944,-1.1502311143579926,-0.9551799343557809,-2.4117850094017173,-0.3824634809032692,0,70,255.0,255.0,255.0
455,22.75,37.2331,21.418,-17.7658,-2.9297756444193594,-7.409262455009724,-1.1690897453361726,-0.9266421028570484,-2.3375130633877035,-0.3718817582239655,0,70,255.0,255.0,255.0
456,22.8,37.08546732696501,21.044649889096142,-17.824712989534362,-2.9752430406890333,-7.524043917627128,-1.1873028374336712,-0.8920537479298732,-2.2537454413083924,-0.35664192567596886,0,70,255.0,255.0,255.0
457,22.85,36.9356045195602,20.665665414589007,-17.88451758388291,-3.0189810192123483,-7.634636999140566,-1.20475393790377,-0.8574653930026981,-2.1699778192290813,-0.34140209312797215,0,70,255.0,255.0,255.0
458,22.900000000000002,36.78359804867287,20.281255995533805,-17.94517568346428,-3.0609895799893043,-7.741041699550039,-1.221443046746469,-0.8228770380755228,-2.08621019714977,-0.3261622605799755,0,70,255.0,255.0,255.0
459,22.950000000000003,36.62953438519037,19.891631050985726,-18.0066491886971,-3.1012687230199014,-7.843258018855547,-1.237370163961768,-0.7882886831483477,-2.002442575070459,-0.31092242803197884,0,70,255.0,255.0,255.0
460,23.0,36.4735,19.497,-18.0689,-3.139818448304138,-7.941285957057081,-1.2525352895496664,-0.7537003282211785,-1.9186749529911395,-0.295682595483985,0,70,255.0,255.0,255.0
461,23.05,36.315579814153175,19.09757159910826,-18.13189177649387,-3.1767317459953825,-8.035165265564924,-1.267043945645646,-0.7228315794285872,-1.8364973873224715,-0.28466364835518815,0,70,255.0,255.0,255.0
462,23.1,36.15585254935779,18.69355195474822,-18.195595212108625,-3.2121016062469976,-8.124935695789333,-1.2810016543851857,-0.691962830635996,-1.7543198216538036,-0.2736447012263913,0,70,255.0,255.0,255.0
463,23.150000000000002,35.99439537748581,18.285146510834043,-18.259982759476447,-3.2459280290589834,-8.210597247730306,-1.2944084157682854,-0.6610940818434046,-1.6721422559851356,-0.2626257540975945,0,70,255.0,255.0,255.0
464,23.200000000000003,35.831285470409206,17.872560711279903,-18.325026871229515,-3.278211014431339,-8.292149921387846,-1.3072642297949455,-0.6302253330508133,-1.5899646903164675,-0.2516068069687976,0,70,255.0,255.0,255.0
465,23.25,35.6666,17.456,-18.3907,-3.3089505623640636,-8.369593716761951,-1.3195690964651647,-0.5993565842582349,-1.5077871246478765,-0.24058785984000863,0,70,255.0,255.0,255.0
466,23.3,35.500417416422266,17.03567011447077,-18.45697350449017,-3.338069975329415,-8.442911020113193,-1.3312573799837457,-0.5654199343558022,-1.4249050094017708,-0.22694348090322103,0,70,255.0,255.0,255.0
467,23.35,35.332821283008634,16.611777966418035,-18.523814367682597,-3.3654925557996447,-8.51208421770213,-1.342263444555487,-0.5314832844533695,-1.342022894155665,-0.21329910196643342,0,70,255.0,255.0,255.0
468,23.400000000000002,35.16389644138388,16.184530761129917,-18.591188478629938,-3.3912183037747528,-8.57711330952876,-1.3525872901803895,-0.49754663455093673,-1.259140778909559,-0.19965472302964585,0,70,255.0,255.0,255.0
469,23.450000000000003,34.99372773317275,15.754135703894523,-18.659061726384856,-3.415247219254739,-8.63799829559309,-1.362228916858452,-0.463609984648504,-1.1762586636634533,-0.18601034409285824,0,70,255.0,255.0,255.0
470,23.5,34.8224,15.3208,-18.7274,-3.4375793022396026,-8.694739175895107,-1.371188324589675,-0.42967333474607017,-1.093376548417396,-0.17236596515607694,0,70,255.0,255.0,255.0
471,23.55,34.649996920157754,14.884730343008611,-18.79616940554546,-3.458284352686964,-8.747366653982304,-1.379478534419377,-0.39852868314836865,-1.0117225750704408,-0.15924242803199337,0,70,255.0,255.0,255.0
472,23.6,34.47659751860763,14.446131379579546,-18.865336917161002,-3.4774321705544398,-8.795911433402154,-1.3871125673928744,-0.3673840315506672,-0.9300686017234858,-0.1461188909079098,0,70,255.0,255.0,255.0
473,23.650000000000002,34.30227965697864,14.005207244646174,-18.93486972600381,-3.4950227558420313,-8.840373514154654,-1.394090423510168,-0.33623937995296566,-0.8484146283765306,-0.13299535378382624,0,70,255.0,255.0,255.0
474,23.700000000000003,34.12712119689976,13.562162073141858,-19.004735023231085,-3.511056108549737,-8.880752896239805,-1.4004121027712573,-0.3050947283552642,-0.7667606550295755,-0.11987181665974266,0,70,255.0,255.0,255.0
475,23.75,33.9512,13.1172,-19.0749,-3.525532228677557,-8.91704957965761,-1.406077605176142,-0.2739500767575578,-0.6851066816826545,-0.10674827953565647,0,70,255.0,255.0,255.0
476,23.8,33.77459490294672,12.670525313494746,-19.145332073327992,-3.5383926139227637,-8.94925436395759,-1.4111004823387525,-0.24046533305070406,-0.6030846903165599,-0.09416680696875605,0,70,255.0,255.0,255.0
477,23.85,33.59738864256081,12.222342915263702,-19.215999563673407,-3.549578761982628,-8.977358048689267,-1.4154942858730177,-0.20698058934385036,-0.5210626989504652,-0.08158533440185564,0,70,255.0,255.0,255.0
478,23.900000000000002,33.41966493070154,11.77285786028528,-19.28687101735482,-3.5590906728571494,-9.001360633852638,-1.4192590157789382,-0.17349584563699666,-0.4390407075843705,-0.06900386183495524,0,70,255.0,255.0,255.0
479,23.950000000000003,33.241507479228176,11.322275203537895,-19.35791498069083,-3.5669283465463275,-9.021262119447703,-1.4223946720565135,-0.14001110193014293,-0.3570187162182758,-0.056422389268054825,0,70,255.0,255.0,255.0
480,24.0,33.063,10.8708,-19.4291,-3.5730917830501636,-9.037062505474465,-1.4249012547057436,-0.10652635822328804,-0.27499672485215854,-0.043840916701151755,0,70,255.0,255.0,255.0
481,24.05,32.884225868055374,10.418638003012367,-19.500394301142574,-3.577601191621959,-9.048719890187353,-1.4267595362255963,-0.07384998464852569,-0.1912986636634076,-0.030490344092950913,0,70,255.0,255.0,255.0
482,24.1,32.70526711114911,9.965997759365575,-19.571764828145387,-3.5804767815150162,-9.056192371840806,-1.4279502891150386,-0.041173611073763314,-0.10760060247465664,-0.017139771484750075,0,70,255.0,255.0,255.0
483,24.150000000000002,32.52620542021518,9.513088514212596,-19.64317820457691,-3.5817185527293356,-9.05947995043482,-1.4284735133740714,-0.008497237499000956,-0.023902541285905687,-0.0037891988765492365,0,70,255.0,255.0,255.0
484,24.200000000000003,32.34712248618748,9.060119512706402,-19.714601054005623,-3.5813265052649164,-9.058582625969397,-1.4283292090026936,0.024179136075761415,0.05979551990284526,0.009561373731651605,0,70,255.0,255.0,255.0
485,24.25,32.1681,8.6073,-19.786,-3.57930063912176,-9.053500398444536,-1.4275173760009061,0.05685550965051789,0.14349358109159027,0.022911946339847944,0,70,255.0,255.0,255.0
486,24.3,31.989219224831807,8.154837874455747,-19.857341922101707,-3.5756666195893807,-9.044314075292986,-1.4260533727589022,0.08850527164463858,0.22395934497039718,0.03564818334030289,0,70,255.0,255.0,255.0
487,24.35,31.81055971284272,7.702935647273922,-19.92859472374506,-3.570450111957296,-9.031104463947495,-1.423952557666876,0.12015503363875926,0.3044251088492041,0.048384420340757836,0,70,255.0,255.0,255.0
488,24.400000000000002,31.632200588437733,7.251794482864218,-19.999726564337564,-3.563651116225505,-9.013871564408065,-1.4212149307248265,0.15180479563287996,0.38489087272801104,0.06112065734121278,0,70,255.0,255.0,255.0
489,24.450000000000003,31.454220976021826,6.801615545636335,-20.07070560328671,-3.5552696323940074,-8.992615376674694,-1.4178404919327543,0.18345455762700064,0.4653566366068179,0.07385689434166773,0,70,255.0,255.0,255.0
490,24.5,31.2767,6.3526,-20.1415,-3.5453056604628057,-8.967335900747383,-1.4138292412906601,0.21510431962112264,0.5458224004856618,0.08659313134211999,0,70,255.0,255.0,255.0
491,24.55,31.099717232617408,5.904950499164604,-20.21207801045061,-3.5337323300205297,-8.937943808640698,-1.4091869727388056,0.24782889806991026,0.6298612837817087,0.09909761073206216,0,70,255.0,255.0,255.0
492,24.6,30.923354037479985,5.458875651538664,-20.282408276874392,-3.5205227706558144,-8.90434977236921,-1.4039194802174537,0.2805534765186979,0.7139001670777556,0.11160209012200432,0,70,255.0,255.0,255.0
493,24.650000000000002,30.74769222603386,5.014585554330418,-20.352459538072868,-3.5056769823686595,-8.866553791932922,-1.398026763726605,0.3132780549674855,0.7979390503738024,0.1241065695119465,0,70,255.0,255.0,255.0
494,24.700000000000003,30.572813609725152,4.572290304748106,-20.42220053284756,-3.489194965159065,-8.82455586733183,-1.391508823266259,0.34600263341627313,0.8819779336698493,0.13661104890188866,0,70,255.0,255.0,255.0
495,24.75,30.3988,4.1322,-20.4916,-3.4710767190270335,-8.778355998565939,-1.3843656588364166,0.37872721186504776,0.9660168169658476,0.14911552829182462,0,70,255.0,255.0,255.0
496,24.8,30.225733444698566,3.694523328885795,-20.560626036095858,-3.451308060328514,-8.72803869014422,-1.3765587362858336,0.4120191360757365,1.046675519902844,0.16316137373149558,0,70,255.0,255.0,255.0
497,24.85,30.05369693723732,3.2594633465713465,-20.629244168757385,-3.4298748054194594,-8.673688446575651,-1.3680495214632666,0.4453110602864252,1.12733422283984,0.17720721917116652,0,70,255.0,255.0,255.0
498,24.900000000000002,29.88277370742679,2.8272216998139976,-20.697419283370984,-3.4067769542998705,-8.615305267860236,-1.3588380143687167,0.4786029844971139,1.2079929257768363,0.1912530646108375,0,70,255.0,255.0,255.0
499,24.950000000000003,29.713046985077504,2.3980000353710915,-20.76511626532306,-3.3820145069697474,-8.552889153997969,-1.3489242150021827,0.5118949087078026,1.2886516287138323,0.20529891005050843,0,70,255.0,255.0,255.0
500,25.0,29.5446,1.972,-20.8323,-3.3555874634290914,-8.486440104988853,-1.338308123363666,0.5451868329184961,1.3693103316508513,0.21934475549018018,0,70,255.0,255.0,255.0
501,25.05,29.377515388588318,1.5494249852921798,-20.898936245165967,-3.3275314286654525,-8.415853430782409,-1.3270420821178703,0.5770545576270412,1.4541566366068406,0.23129689434164025,0,70,255.0,255.0,255.0
502,25.1,29.211873413570704,1.130485362175877,-20.964994248096076,-3.297882007666386,-8.341024441328166,-1.3151784339295016,0.6089222823355863,1.5390029415628301,0.24324903319310032,0,70,255.0,255.0,255.0
503,25.150000000000002,29.04775374425893,0.7153932464134813,-21.030444128443207,-3.266639200431893,-8.261953136626124,-1.30271717879856,0.6407900070441314,1.6238492465188195,0.2552011720445604,0,70,255.0,255.0,255.0
504,25.200000000000003,28.88523604996477,0.30436075376738286,-21.09525600586023,-3.2338030069619723,-8.178639516676283,-1.2896583167250453,0.6726577317526765,1.708695551474809,0.26715331089602046,0,70,255.0,255.0,255.0
505,25.25,28.7244,-0.1024,-21.1594,-3.1993734272566274,-8.091083581478648,-1.2760018477089585,0.7045254564612229,1.7935418564308279,0.27910544974747964,0,70,255.0,255.0,255.0
506,25.3,28.565325000948143,-0.50468007005455,-21.222845783240288,-3.1633662250096886,-7.99947558672613,-1.2617209352427214,0.7357626334163141,1.8707779336698391,0.29213104890199965,0,70,255.0,255.0,255.0
507,25.35,28.40808940847982,-0.9022831952749252,-21.285561238858314,-3.125797163914995,-7.904005788111662,-1.2467887428187583,0.7669998103714052,1.9480140109088504,0.3051566480565196,0,70,255.0,255.0,255.0
508,25.400000000000002,28.25277131553743,-1.2950162854680283,-21.347513802856202,-3.0866662439725467,-7.804674185635242,-1.231205270437069,0.7982369873264964,2.0252500881478617,0.3181822472110396,0,70,255.0,255.0,255.0
509,25.450000000000003,28.099448815063358,-1.6826862504407614,-21.40867091123606,-3.0459734651823442,-7.7014807792968725,-1.2149705180976538,0.8294741642815875,2.102486165386873,0.33120784636555956,0,70,255.0,255.0,255.0
510,25.5,27.9482,-2.0651,-21.469,-3.0037188275443896,-7.59442556909656,-1.1980844858005137,0.86071134123668,2.1797222426258642,0.3442334455200715,0,70,255.0,255.0,255.0
511,25.55,27.799106207619104,-2.4420567050740147,-21.528467821872905,-2.9597076712957793,-7.483044222313065,-1.1805061769112495,0.8997349087077174,2.2755316287138383,0.35889891005048985,0,70,255.0,255.0,255.0
512,25.6,27.652261752509975,-2.813324581076244,-21.587038396470685,-2.9137453366736166,-7.366872406225173,-1.1621945947954642,0.9387584761787547,2.371341014801813,0.37356437458090824,0,70,255.0,255.0,255.0
513,25.650000000000002,27.507764193591296,-3.1786641045414687,-21.644675060132013,-2.865831823677902,-7.245910120832881,-1.143149739453158,0.9777820436497922,2.467150400889787,0.3882298391113266,0,70,255.0,255.0,255.0
514,25.700000000000003,27.36571108978174,-3.537835752004469,-21.701341149195564,-2.8159671323086357,-7.120157366136191,-1.123371610884331,1.0168056111208295,2.562959786977761,0.4028953036417449,0,70,255.0,255.0,255.0
515,25.75,27.2262,-3.8906,-21.757,-2.764151262565822,-6.98961414213511,-1.1028602090889845,1.0558291785918605,2.6587691730657355,0.4175607681721658,0,70,255.0,255.0,255.0
516,25.8,27.089327768575426,-4.236716309649424,-21.8116141292681,-2.7104270898072067,-6.854219524021595,-1.0815663571122789,1.0931377317527178,2.757015551474821,0.4341933108960428,0,70,255.0,255.0,255.0
517,25.85,26.95518838148024,-4.575940080420162,-21.865142775258963,-2.6548374893905486,-6.713912586987624,-1.0594408779993796,1.130446284913575,2.8552619298839064,0.4508258536199198,0,70,255.0,255.0,255.0
518,25.900000000000002,26.82387511009734,-4.908025696366189,-21.91754435661577,-2.597382461315848,-6.5686933310332,-1.0364837717502864,1.167754838074432,2.9535083082929914,0.46745839634379677,0,70,255.0,255.0,255.0
519,25.950000000000003,26.695481225809623,-5.232727541541483,-21.96877729198172,-2.538062005583104,-6.418561756158321,-1.0126950383649993,1.2050633912352893,3.051754686702077,0.48409093906767375,0,70,255.0,255.0,255.0
520,26.0,26.5701,-5.5498,-22.0188,-2.4768761221923214,-6.263517862362998,-0.98807467784352,1.242371944396151,3.150001065111205,0.5007234817915558,0,70,255.0,255.0,255.0
521,26.05,26.447818718079162,-5.859016456328318,-22.067574861054695,-2.4141839694753764,-6.1047016816005435,-0.9628603946395936,1.2653141642816006,3.20264616538688,0.5078478463654867,0,70,255.0,255.0,255.0
522,26.1,26.328700721569028,-6.160226297243167,-22.115080102493483,-2.3503447057641598,-5.943253245824306,-0.9372898932069706,1.2882563841670502,3.2552912656625552,0.5149722109394176,0,70,255.0,255.0,255.0
523,26.150000000000002,26.212803366019315,-6.453297909993861,-22.16129791340492,-2.28535833105867,-5.779172555034284,-0.9113631735456511,1.3111986040524999,3.30793636593823,0.5220965755133485,0,70,255.0,255.0,255.0
524,26.200000000000003,26.10018400697973,-6.738099681829707,-22.206210482877573,-2.219224845358908,-5.612459609230477,-0.885080235655635,1.3341408239379495,3.3605814662139055,0.5292209400872795,0,70,255.0,255.0,255.0
525,26.25,25.9909,-7.0145,-22.2498,-2.151944248664878,-5.4431144084129,-0.8584410795369243,1.3570830438234047,3.4132265664896195,0.5363453046612117,0,70,255.0,255.0,255.0
526,26.3,25.88500855910791,-7.282363465037334,-22.29204722651311,-2.0835250322912717,-5.270909749576213,-0.8313600643293498,1.3796856111207982,3.474959786977777,0.5468953036417507,0,70,255.0,255.0,255.0
527,26.35,25.782566332243615,-7.541539530607222,-22.33292721476712,-2.013975687552796,-5.095618429715118,-0.8037515491727485,1.4022881784181918,3.536693007465934,0.5574453026222895,0,70,255.0,255.0,255.0
528,26.400000000000002,25.683629825825374,-7.791873863658445,-22.37241358976457,-1.9432962144494506,-4.917240448829615,-0.77561553406712,1.4248907457155855,3.598426227954091,0.5679953016028285,0,70,255.0,255.0,255.0
529,26.450000000000003,25.58825554627142,-8.033212131139784,-22.410479976508014,-1.8714866129812355,-4.735775806919704,-0.7469520190124648,1.447493313012979,3.6601594484422484,0.5785453005833674,0,70,255.0,255.0,255.0
530,26.5,25.4965,-8.2654,-22.4471,-1.7985468831481561,-4.551224503985399,-0.7177610040087846,1.4700958803103692,3.721892668930394,0.5890952995639074,0,70,255.0,255.0,255.0
531,26.55,25.4084214454892,-8.488280883522373,-22.48224743289286,-1.7243719013595136,-4.363451320094584,-0.6880513480429945,1.4969033912352914,3.7890346867020592,0.5992909390676807,0,70,255.0,255.0,255.0
532,26.6,25.324085149456483,-8.701689180327987,-22.515896638438043,-1.648856544024625,-4.172321035315187,-0.6578319101020157,1.5237109021602133,3.8561767044737243,0.609486578571454,0,70,255.0,255.0,255.0
533,26.650000000000002,25.24355813067917,-8.905457035372422,-22.548022127536804,-1.57200081114349,-3.9778336496472066,-0.6271026901858482,1.5505184130851355,3.9233187222453894,0.6196822180752274,0,70,255.0,255.0,255.0
534,26.700000000000003,25.166907407934573,-9.099416593611238,-22.578598411090383,-1.493804702716109,-3.779989163090643,-0.5958636882944921,1.5773259240100577,3.9904607400170544,0.6298778575790007,0,70,255.0,255.0,255.0
535,26.75,25.0942,-9.2834,-22.6076,-1.4142682187424878,-3.57878757564551,-0.5641149044279494,1.6041334349349707,4.057602757788729,0.6400734970827724,0,70,255.0,255.0,255.0
536,26.8,25.025498458935296,-9.457250600873198,-22.63500304191546,-1.333659362270665,-3.3749009700454407,-0.5319545434986978,1.6202208239378961,4.097861466213931,0.6463409400872785,0,70,255.0,255.0,255.0
537,26.85,24.960847469930435,-9.620856548080862,-22.660790231480703,-1.2522461363486959,-3.169001429024111,-0.49948081041922066,1.6363082129408213,4.138120174639134,0.6526083830917846,0,70,255.0,255.0,255.0
538,26.900000000000002,24.90028725145793,-9.774117194851927,-22.684945900088216,-1.1700285409765805,-2.9610889525815214,-0.4666937051895183,1.6523956019437467,4.178378883064337,0.6588758260962908,0,70,255.0,255.0,255.0
539,26.950000000000003,24.843858021990275,-9.916931894415331,-22.707454379130485,-1.0870065761543188,-2.7511635407176716,-0.43359322780959064,1.6684829909466719,4.218637591489538,0.6651432691007969,0,70,255.0,255.0,255.0
540,27.0,24.7916,-10.0492,-22.7283,-1.0031802418819171,-2.539225193432577,-0.40017937827944006,1.684570379949589,4.258896299914728,0.6714107121053043,0,70,255.0,255.0,255.0
541,27.05,24.74356951876962,-10.170779112984853,-22.747460399445313,-0.9175826495578501,-2.3227687997236486,-0.36605047796222095,1.7393333130130466,4.3993594484422855,0.6937453005834413,0,70,255.0,255.0,255.0
542,27.1,24.699887370821763,-10.281359827348597,-22.764886435639156,-0.8292469105806101,-2.0992892485883425,-0.33080484822109496,1.794096246076504,4.539822596969843,0.7160798890615783,0,70,255.0,255.0,255.0
543,27.150000000000002,24.660690463489107,-10.380590985219916,-22.780522272110353,-0.738173024950197,-1.868786540026658,-0.29444248905606213,1.8488591791399616,4.680285745497401,0.7384144775397152,0,70,255.0,255.0,255.0
544,27.200000000000003,24.6261157041043,-10.46812142872749,-22.794312072387697,-0.6443609926666113,-1.6312606740385955,-0.25696340046712235,1.9036221122034191,4.820748894024959,0.7607490660178522,0,70,255.0,255.0,255.0
545,27.25,24.5963,-10.5436,-22.8062,-0.5478108137298594,-1.386711650624173,-0.2183675824542785,1.9583850452668727,4.961212042552511,0.7830836544959889,0,70,255.0,255.0,255.0
546,27.3,24.571318665986233,-10.606832947187408,-22.81615536030331,-0.4522180394979346,-1.1445838310599314,-0.18016354465240483,1.8653259240100644,4.72390074001702,0.7450778575789359,0,70,255.0,255.0,255.0
547,27.35,24.55100064678249,-10.658256142524774,-22.82424802596267,-0.36127822132885035,-0.9143215766224644,-0.14385979669638385,1.7722668027532558,4.486589437481528,0.7070720606618827,0,70,255.0,255.0,255.0
548,27.400000000000002,24.535113294585635,-10.698462864268436,-22.83057301147038,-0.27499135922260654,-0.6959248873117722,-0.10945633858621558,1.6792076814964474,4.249278134946037,0.6690662637448296,0,70,255.0,255.0,255.0
549,27.450000000000003,24.523423961592517,-10.728046390674733,-22.835225331318725,-0.19335745317920322,-0.4893937631278546,-0.07695317032189998,1.5861485602396388,4.011966832410545,0.6310604668277764,0,70,255.0,255.0,255.0
550,27.5,24.5157,-10.7476,-22.8383,-0.11637650319864566,-0.29472820407072525,-0.04635029190343915,1.493089438982838,3.774655529875074,0.593054669910726,0,70,255.0,255.0,255.0
551,27.55,24.51159341728545,-10.758007498265519,-22.839937359341455,-0.05096919245040786,-0.1293598760366088,-0.020367343428149942,1.123202990946637,2.84007759148949,0.4462632691008276,0,70,255.0,255.0,255.0
552,27.6,24.51029484204826,-10.761314802552315,-22.840459060510156,-0.004056204103980374,-0.010720444921772238,-0.0017239649933557602,0.7533165429104359,1.9054996531039055,0.2994718682909292,0,70,255.0,255.0,255.0
553,27.650000000000002,24.51087955816835,-10.759858357706353,-22.840232082008132,0.024362461840636798,0.061190089273784415,0.009579843400943394,0.38343009487423485,0.9709217147183211,0.1526804674810308,0,70,255.0,255.0,255.0
554,27.700000000000003,24.51242284952563,-10.755974608573592,-22.839623402337406,0.03428680538344364,0.08637172655006126,0.013544081754747528,0.013543646838033885,0.03634377633273678,0.005889066671132426,0,70,255.0,255.0,255.0
555,27.75,24.514,-10.752,-22.839,0.025716826524441485,0.06482446690706138,0.010168750068057139,-0.35634280119814077,-0.8982341620527811,-0.14090233413875555,0,70,255.0,255.0,255.0
556,27.8,24.514878064871976,-10.749786659750514,-22.83865280233087,0.01015880929957339,0.025607335206366204,0.004016918365033763,-0.26597788779657416,-0.6704511059750038,-0.10517093398217597,0,70,255.0,255.0,255.0
557,27.85,24.51509118502446,-10.749249447265965,-22.8385685319967,-0.0008809622552163089,-0.0022206436904399496,-0.0003483433301606086,-0.1756129743950075,-0.4426680498972266,-0.06943953382559641,0,70,255.0,255.0,255.0
558,27.900000000000002,24.514865272740956,-10.74981890490616,-22.83865786049709,-0.007402488139927606,-0.01865946978335707,-0.002927035017525977,-0.08524806099344084,-0.21488499381944937,-0.03370813366901684,0,70,255.0,255.0,255.0
559,27.950000000000003,24.514426240304967,-10.750925575030903,-22.838831459331654,-0.009405768354560515,-0.023709143072385183,-0.0037191566970623414,0.0051168524081257605,0.012898062258327903,0.002023266487562736,0,70,255.0,255.0,255.0
560,28.0,24.514,-10.752,-22.839,-0.006890802899115372,-0.017369663557525134,-0.0027247083687698343,0.09548176580968593,0.24068111833608885,0.03775466664413976,0,70,255.0,255.0,255.0
561,28.05,24.51376472322665,-10.752593062732426,-22.839093031335054,-0.0027220447478824693,-0.00686146478885888,-0.0010763300319725426,0.07126856023962781,0.17964683241055532,0.028180466827750973,0,70,255.0,255.0,255.0
562,28.1,24.513707617853903,-10.752737008383825,-22.83911561150304,0.00023605312484751033,0.0005950196835306527,9.333831400530309e-05,0.0470553546695697,0.1186125464850218,0.018606267011362188,0,70,255.0,255.0,255.0
563,28.150000000000002,24.513768150867826,-10.75258442266901,-22.8390916760035,0.001983490719074568,0.004999789859643465,0.000784296669163703,0.022842149099511586,0.057578260559488254,0.0090320671949734,0,70,255.0,255.0,255.0
564,28.200000000000003,24.513885789254502,-10.7522878913028,-22.839045160335974,0.0025202680347987012,0.00635284573947956,0.0009965450335026557,-0.0013710564705465278,-0.003456025366045251,-0.0005421326214153852,0,70,255.0,255.0,255.0
565,28.25,24.514,-10.752,-22.839,0.0018463850720200031,0.004654187323039161,0.0007300834070221988,-0.025584262040602927,-0.06449031129157448,-0.010116332437803494,0,70,255.0,255.0,255.0
566,28.3,24.514063042221412,-10.751841089319786,-22.838975072328903,0.0007293696919564868,0.0018385239490693209,0.00028840176285640725,-0.019096353161937092,-0.04813622366721754,-0.0075509333288279155,0,70,255.0,255.0,255.0
567,28.35,24.51407834355993,-10.75180251919874,-22.838969021991122,-6.325024417373315e-05,-0.00015943504368266044,-2.5009925860603507e-05,-0.012608444283271259,-0.031782136042860586,-0.004985534219852337,0,70,255.0,255.0,255.0
568,28.400000000000002,24.51406212378773,-10.7518434044178,-22.838975435488894,-0.0005314747363706568,-0.0013396896552167826,-0.00021015165912883344,-0.006120535404605425,-0.015428048418503634,-0.0024201351108767586,0,70,255.0,255.0,255.0
569,28.450000000000003,24.51403060267702,-10.751922859757908,-22.838987899324444,-0.0006753037846342841,-0.0017022398855330448,-0.0002670234369482828,0.0003673734740604097,0.0009260392058533101,0.00014526399809882025,0,70,255.0,255.0,255.0
570,28.5,24.514,-10.752,-22.839,-0.0004947373889646401,-0.001247085734631512,-0.00019562525931896083,0.006855282352725782,0.017280126830209096,0.0027106631070742174,0,70,255.0,255.0,255.0
571,28.55,24.513983107887682,-10.752042579988432,-22.83900667934934,-0.0001954340199434773,-0.0004926310074184031,-7.727701945308649e-05,0.005116852408120561,0.012898062258314833,0.002023266487560689,0,70,255.0,255.0,255.0
572,28.6,24.513979007906382,-10.752052914821219,-22.83900830053246,1.6947851847423233e-05,4.272049119998964e-05,6.7013894371109524e-06,0.0033784224635153397,0.00851599768642057,0.001335869868047161,0,70,255.0,255.0,255.0
573,28.650000000000002,24.513983353981246,-10.752041959659788,-22.839006582040913,0.00014240822640806152,0.000358968761223666,5.6309967351631516e-05,0.0016399925189101187,0.004133933114526308,0.0006484732485336326,0,70,255.0,255.0,255.0
574,28.700000000000003,24.513991800037406,-10.752020669665573,-22.83900324236624,0.00018094710373843742,0.0004561138026526264,7.154871429047513e-05,-9.843742569510226e-05,-0.00024813145736795467,-3.892337097989541e-05,0,70,255.0,255.0,255.0
575,28.75,24.514,-10.752,-22.839,0.00013256448383855754,0.0003341556154868871,5.2417630253644504e-05,-0.0018368673703001996,-0.004630196029261904,-0.0007263199904933745,0,70,255.0,255.0,255.0
