idx,t,px,py,pz,vx,vy,vz,ax,ay,az,yaw,mode,ledr,ledg,ledb
0,0.0,3.0,0.0,0.0,-0.01785739511513812,0.01549991834686587,0.030802699378290888,0.4862887413816559,-0.4283990201623904,-0.8536323925394904,0,70,255.0,255.0,255.0
1,0.05,2.999713133775855,0.00024119706048717133,0.0004760971776184721,0.0063455982470363905,-0.005818037560441699,-0.011698758285986186,0.48183099310532446,-0.4243192161299123,-0.8464259140315924,0,70,255.0,255.0,255.0
2,0.1,3.000630845034473,-0.0005784039193504383,-0.001163870429842037,0.030325704195394328,-0.026932003266125364,-0.05383989202486836,0.477373244828993,-0.42023941209743426,-0.8392194355236944,0,70,255.0,255.0,255.0
3,0.15000000000000002,3.002741989405164,-0.002448603429431634,-0.0049018866261117825,0.0540829227299357,-0.047841978770185124,-0.09562070183835562,0.4729154965526615,-0.41615960806495617,-0.8320129570157964,0,70,255.0,255.0,255.0
4,0.2,3.006035422517237,-0.0053592019596752204,-0.010719935214921018,0.07761725385066048,-0.06854796407262098,-0.137041187726448,0.4684577482763301,-0.4120798040324781,-0.8248064785078983,0,70,255.0,255.0,255.0
5,0.25,3.0105,-0.0093,-0.0186,0.1009286975575687,-0.08904995917343293,-0.17810134968914546,0.46399999999999886,-0.4079999999999996,-0.8176000000000008,0,70,255.0,255.0,255.0
6,0.30000000000000004,3.016124577482763,-0.014260798040324783,-0.028524064785078993,0.12401725385066038,-0.10934796407262098,-0.21880118772644808,0.45954225172366725,-0.4039201959675217,-0.8103935214921023,0,70,255.0,255.0,255.0
7,0.35000000000000003,3.0228980105948358,-0.020231396570568366,-0.04047411337388823,0.14688292272993544,-0.1294419787701851,-0.2591407018383557,0.4550845034473357,-0.39984039193504384,-0.803187042984204,0,70,255.0,255.0,255.0
8,0.4,3.0308091549655263,-0.02720159608064956,-0.05443212957015798,0.16952570419539395,-0.14933200326612533,-0.29911989202486844,0.4506267551710041,-0.39576058790256596,-0.7959805644763055,0,70,255.0,255.0,255.0
9,0.45,3.039846866224145,-0.035161197060487176,-0.07038009717761849,0.19194559824703583,-0.1690180375604417,-0.3387387582859862,0.44616900689467254,-0.3916807838700881,-0.7887740859684071,0,70,255.0,255.0,255.0
10,0.5,3.05,-0.0441,-0.0883,0.2141426048848612,-0.18850008165313417,-0.37799730062170916,0.44171125861834115,-0.38760097983761077,-0.7815676074605085,0,70,255.0,255.0,255.0
11,0.55,3.0612565562930913,-0.05400760489918806,-0.10817183803730257,0.2360653863503199,-0.20776610614907448,-0.41677649080822193,0.43520000000000597,-0.3830400000000002,-0.7695999999999994,0,70,255.0,255.0,255.0
12,0.6000000000000001,3.073601112586183,-0.06487280979837612,-0.12996767607460513,0.2576626048848618,-0.22680408165313423,-0.4549573006217092,0.4286887413816708,-0.37847902016238966,-0.7576323925394904,0,70,255.0,255.0,255.0
13,0.65,3.087017390732729,-0.07668421224797015,-0.15365759509325638,0.278934260488487,-0.24561400816531342,-0.49253973006217094,0.42217748276333567,-0.37391804032477916,-0.7456647850789814,0,70,255.0,255.0,255.0
14,0.7000000000000001,3.1014891125861834,-0.08943040979837612,-0.17921167607460514,0.2998803531611954,-0.2641958856856121,-0.5295237791296072,0.4156662241450005,-0.3693570604871686,-0.7336971776184723,0,70,255.0,255.0,255.0
15,0.75,3.117,-0.1031,-0.2066,0.320500882902987,-0.28254971421403025,-0.5659094478240182,0.4091549655266653,-0.36479608064955693,-0.721729570157966,0,70,255.0,255.0,255.0
16,0.8,3.13353399734487,-0.11768078236292301,-0.23579338306571088,0.34080920074806187,-0.3006276113310811,-0.6017408490406648,0.4031777482763288,-0.3583198040324775,-0.7115264785078986,0,70,255.0,255.0,255.0
17,0.8500000000000001,3.151075939060431,-0.13315736423592725,-0.26676558232769154,0.36081865773061994,-0.318381694617278,-0.6370620956748081,0.3972005310259923,-0.35184352741539804,-0.7013233868578312,0,70,255.0,255.0,255.0
18,0.9,3.169610882103557,-0.14951355492746993,-0.2994910900568166,0.3805292538506611,-0.3358119640726209,-0.6718731877264479,0.3912233137756558,-0.34536725079831865,-0.691120295207764,0,70,255.0,255.0,255.0
19,0.9500000000000001,3.189123883431122,-0.1667331637460084,-0.33394439852396124,0.3999409891081855,-0.35291841969710985,-0.7061741251955845,0.38524609652531927,-0.3388909741812392,-0.6809172035576966,0,70,255.0,255.0,255.0
20,1.0,3.2096,-0.1848,-0.3701,0.419053863503193,-0.36970106149074483,-0.7399649080822176,0.37926887927498365,-0.33241469756416064,-0.670714111907631,0,70,255.0,255.0,255.0
21,1.05,3.2310242543274286,-0.20369886564911993,-0.4079322296998541,0.43786581065743424,-0.38621944852660106,-0.7732361130291185,0.3732090068946641,-0.328320783870089,-0.6601340859684084,0,70,255.0,255.0,255.0
22,1.1,3.253381531172093,-0.22341853325791505,-0.4474147946146292,0.45637476419265943,-0.4025331398777538,-0.8059783166790585,0.3671491345143445,-0.32422687017601737,-0.6495540600291859,0,70,255.0,255.0,255.0
23,1.1500000000000001,3.2766566808530437,-0.24394876804215027,-0.4885212446794774,0.4745807241088687,-0.4186421355442029,-0.8381915190320373,0.3610892621340249,-0.32013295648194573,-0.6389740340899633,0,70,255.0,255.0,255.0
24,1.2000000000000002,3.3008345536893295,-0.26527933521759034,-0.5312251298295504,0.492483690406062,-0.43454643552594835,-0.8698757200880549,0.35502938975370535,-0.3160390427878741,-0.6283940081507408,0,70,255.0,255.0,255.0
25,1.25,3.3259,-0.2874,-0.5755,0.5100836630842392,-0.4502460398229902,-0.9010309198471113,0.348969517373388,-0.31194512909380334,-0.6178139822115165,0,70,255.0,255.0,255.0
26,1.3,3.351837785345417,-0.3102997550405973,-0.6213192981348729,0.5273755566221991,-0.4656945945625145,-0.931650698842861,0.34270622414500895,-0.30599706048716824,-0.6069771776184725,0,70,255.0,255.0,255.0
27,1.35,3.3786323362511963,-0.3339645027324126,-0.668656039213792,0.5443542854987402,-0.4808457458717071,-0.9617286376089585,0.3364429309166299,-0.30004899188053313,-0.5961403730254284,0,70,255.0,255.0,255.0
28,1.4000000000000001,3.406267994484267,-0.3583793729039292,-0.7174831312252747,0.5610198497138622,-0.4956994937505679,-0.9912647361454039,0.33017963768825087,-0.29410092327389803,-0.5853035684323844,0,70,255.0,255.0,255.0
29,1.4500000000000002,3.434729101811559,-0.3835294953836306,-0.7677734821578384,0.5773722492675653,-0.5102558381990969,-1.0202589944521971,0.32391634445987183,-0.2881528546672629,-0.5744667638393404,0,70,255.0,255.0,255.0
30,1.5,3.464,-0.4094,-0.8195,0.5934114841598495,-0.5245147792172942,-1.048711412529338,0.3176530512314919,-0.28220478606062827,-0.5636299592463008,0,70,255.0,255.0,255.0
31,1.55,3.4940654042909047,-0.43597651418849076,-0.8726353777606546,0.6091599628537697,-0.5385061732233409,-1.0766090915994382,0.3122860965253178,-0.2774509741812402,-0.5522772035576982,0,70,255.0,255.0,255.0
32,1.6,3.524911523823122,-0.46324665581243457,-0.9271514485302034,0.6246400938123813,-0.5522598766354182,-1.1039391328851078,0.3069191418191437,-0.2726971623018521,-0.5409244478690954,0,70,255.0,255.0,255.0
33,1.6500000000000001,3.5565249412098874,-0.49119854034213317,-0.983019830419425,0.6398518770356841,-0.5657758894535261,-1.1307015363863477,0.3015521871129696,-0.26794335042246403,-0.5295716921804927,0,70,255.0,255.0,255.0
34,1.7000000000000002,3.5888922390644353,-0.5198202832478878,-1.0402121415390977,0.6547953125236783,-0.5790542116776647,-1.156896302103157,0.2961852324067955,-0.2631895385430759,-0.5182189364918901,0,70,255.0,255.0,255.0
35,1.75,3.622,-0.5491,-1.0987,0.6694704002763636,-0.5920948433078338,-1.1825234300355367,0.29081827770061963,-0.2584357266636905,-0.5068661808032893,0,70,255.0,255.0,255.0
36,1.8,3.655834197490966,-0.5790253882054398,-1.1584559908225092,0.6838405919627216,-0.6048727125441229,-1.2076409347593875,0.28398938975370097,-0.2526790427878728,-0.4978340081507383,0,70,255.0,255.0,255.0
37,1.85,3.690378368456317,-0.6095824740178492,-1.2194565666653951,0.6978693392517337,-0.6173627475866211,-1.2323068308506107,0.27716050180678237,-0.24692235891205508,-0.48880183549818734,0,70,255.0,255.0,255.0
38,1.9000000000000001,3.7256154406761834,-0.6407568657275388,-1.2816791470970266,0.7115566421433999,-0.6295649484353284,-1.2565211183092062,0.2703316138598637,-0.24116567503623737,-0.47976966284563644,0,70,255.0,255.0,255.0
39,1.9500000000000002,3.7615283419307004,-0.6725341716248189,-1.345101151685772,0.7249025006377201,-0.6414793150902448,-1.2802837971351742,0.2635027259129451,-0.23540899116041963,-0.4707374901930855,0,70,255.0,255.0,255.0
40,2.0,3.7981,-0.7049,-1.4097,0.7379069147346945,-0.6531058475513704,-1.3035948673285147,0.25667383796602916,-0.22965230728460195,-0.4617053175405381,0,70,255.0,255.0,255.0
41,2.0500000000000003,3.835313805745231,-0.7378403329897505,-1.4754518589493095,0.7505976692953423,-0.664466976600167,-1.326379169363012,0.2509563444598809,-0.2247928546672634,-0.4496667638393468,0,70,255.0,255.0,255.0
42,2.1,3.8731550023516124,-0.7713426481161689,-1.5423278848082171,0.7630025491806827,-0.6755851330180968,-1.3485615437124496,0.24523885095373268,-0.21993340204992487,-0.4376282101381555,0,70,255.0,255.0,255.0
43,2.15,3.9116092960853774,-0.8053947967477122,-1.6102979811924698,0.7751215543907155,-0.6864603168051594,-1.3701419903768273,0.2395213574475845,-0.21507394943258637,-0.4255896564369643,0,70,255.0,255.0,255.0
44,2.2,3.9506623932127627,-0.8399846302528372,-1.6793320517178154,0.7869546849254411,-0.6970925279613555,-1.3911205093561458,0.2338038639414362,-0.21021449681524781,-0.4135511027357729,0,70,255.0,255.0,255.0
45,2.25,3.9903,-0.8751,-1.7494,0.798501940784859,-0.7074817664866843,-1.4114971006504047,0.22808637043528357,-0.20535504419791462,-0.40151254903457456,0,70,255.0,255.0,255.0
46,2.3000000000000003,4.030508179528108,-0.9107284798355589,-1.8204733733802545,0.8097847308559109,-0.7176113810552093,-1.4313703877885662,0.22322523240678396,-0.19982953854308236,-0.39341893649188286,0,70,255.0,255.0,255.0
47,2.35,4.071274422137234,-0.9468565335174753,-1.8925302941017377,0.8208244640255375,-0.7274647203409925,-1.450838994299593,0.2183640943782844,-0.19430403288825016,-0.3853253239491913,0,70,255.0,255.0,255.0
48,2.4000000000000004,4.112586574982306,-0.9834703472816126,-1.965550528133095,0.8316211402937392,-0.7370417843440343,-1.4699029201834855,0.21350295634978483,-0.1887785272334179,-0.37723171140649964,0,70,255.0,255.0,255.0
49,2.45,4.15443248521825,-1.0205561073638332,-2.0395138414429677,0.8421747596605159,-0.7463425730643343,-1.488562165440243,0.20864181832128528,-0.18325302157858567,-0.369138098863808,0,70,255.0,255.0,255.0
50,2.5,4.1968,-1.0581,-2.1144,0.8524853221258676,-0.7553670865018928,-1.5068167300698658,0.20378068029278662,-0.1777275159237499,-0.3610444863211075,0,70,255.0,255.0,255.0
51,2.5500000000000003,4.2396766761423335,-1.0960881476680149,-2.190187447529675,0.8625354072810113,-0.7641114991789969,-1.5245872794827207,0.1982227259129642,-0.17204899116041347,-0.34977749019308635,0,70,255.0,255.0,255.0
52,2.6,4.283048909099451,-1.1345064178139301,-2.266849338784832,0.872307594717164,-0.7725719856179342,-1.5417944790891744,0.1926647715331418,-0.1663704663970771,-0.3385104940650652,0,70,255.0,255.0,255.0
53,2.6500000000000004,4.3269028039854005,-1.1733406141258387,-2.3443575062751525,0.8818018844343256,-0.7807485458187047,-1.5584383288892272,0.18710681715331937,-0.16069194163374062,-0.32724349793704405,0,70,255.0,255.0,255.0
54,2.7,4.371224465914234,-1.2125765402918316,-2.4226837825103145,0.891018276432496,-0.7886411797813082,-1.574518828882879,0.18154886277349697,-0.15501341687040424,-0.3159765018090229,0,70,255.0,255.0,255.0
55,2.75,4.416,-1.2522,-2.5018,0.8999567707116751,-0.7962498875057449,-1.5900359790701295,0.1759909083936737,-0.1493348921070634,-0.30470950568099475,0,70,255.0,255.0,255.0
56,2.8000000000000003,4.461214715902554,-1.292197329492383,-2.5816784365010474,0.9085696400200525,-0.8036066222288027,-1.605016494280549,0.1685238639414155,-0.1449344968152502,-0.2945111027357821,0,70,255.0,255.0,255.0
57,2.85,4.5068507414649615,-1.3325569952268037,-2.662293150758934,0.9168091571058167,-0.8107433371872699,-1.6194870893437079,0.16105681948915737,-0.140534101523437,-0.28431269979056956,0,70,255.0,255.0,255.0
58,2.9000000000000004,4.552889409076093,-1.3732679962150334,-2.7436186467662975,0.9246753219689682,-0.8176600323811465,-1.633447764259606,0.15358977503689916,-0.1361337062316238,-0.27411429684535693,0,70,255.0,255.0,255.0
59,2.95,4.599312051124816,-1.414319331468842,-2.8256294285157737,0.9321681346095066,-0.8243567078104324,-1.6468985190282435,0.14612273058464104,-0.1317333109398106,-0.26391589390014436,0,70,255.0,255.0,255.0
60,3.0,4.6461,-1.4557,-2.9083,0.9392875950274321,-0.8308333634751276,-1.65983935364962,0.13865568613238732,-0.1273329156479983,-0.2537174909549371,0,70,255.0,255.0,255.0
61,3.0500000000000003,4.693235660247449,-1.4973985343624543,-2.9916044064661373,0.9460980326387739,-0.8370620119057923,-1.6722427433950886,0.13376181832128303,-0.12181302157858746,-0.24241809886379637,0,70,255.0,255.0,255.0
62,3.1,4.740705725040701,-1.5394016012788547,-3.075514858179433,0.9526637768595604,-0.8430146656329863,-1.6840811635359998,0.1288679505101788,-0.11629312750917666,-0.2311187067726557,0,70,255.0,255.0,255.0
63,3.1500000000000004,4.788497959710229,-1.5816954010140285,-3.160003106659661,0.9589848276897918,-0.84869132465671,-1.695354614072354,0.12397408269907452,-0.1107732334397658,-0.21981931468151494,0,70,255.0,255.0,255.0
64,3.2,4.836600129586505,-1.6242661338328013,-3.2450409034265926,0.9650611851294678,-0.8540919889769629,-1.7060630950041513,0.11908021488797027,-0.105253339370355,-0.20851992259037427,0,70,255.0,255.0,255.0
65,3.25,4.885,-1.6671,-3.3306,0.9708928491785889,-0.8592166585937454,-1.7162066063313917,0.11418634707686515,-0.09973344530094419,-0.19722053049923893,0,70,255.0,255.0,255.0
66,3.3000000000000003,4.933685043107649,-1.7101829330578011,-3.4166527376344065,0.9764622294248487,-0.864049330148029,-1.7258205321390978,0.10858886277352792,-0.09357341687039998,-0.18733650180901296,0,70,255.0,255.0,255.0
67,3.35,4.982641558372232,-1.7534997996577777,-3.5031738165233346,0.9817517354559417,-0.8685740002807855,-1.7349402565122929,0.10299137847019074,-0.08741338843985583,-0.17745247311878706,0,70,255.0,255.0,255.0
68,3.4000000000000004,5.031855552082991,-1.797035199728854,-3.5901385265950605,0.9867613672718678,-0.8727906689920146,-1.7435657794509767,0.09739389416685351,-0.08125336000931163,-0.16756844442856106,0,70,255.0,255.0,255.0
69,3.45,5.0813130305291665,-1.8407737331999536,-3.6775221577778576,0.991491124872627,-0.8766993362817166,-1.7516971009551492,0.09179640986351634,-0.07509333157876748,-0.15768441573833517,0,70,255.0,255.0,255.0
70,3.5,5.131,-1.8847,-3.7653,0.9959410082582194,-0.8803000021498913,-1.75933422102481,0.08619892556018094,-0.06893330314821977,-0.1478003870481075,0,70,255.0,255.0,255.0
71,3.5500000000000003,5.180901767321956,-1.9287993334063434,-3.853447042996239,1.0000690496618394,-0.883636667502092,-1.7664591280485167,0.07892273058461217,-0.06453331093980894,-0.13719589390015863,0,70,255.0,255.0,255.0
72,3.6,5.2310008414703715,-1.9730600000900358,-3.9419370757272283,1.0038332813166806,-0.8867533332438723,-1.7730538104148257,0.07164653560904347,-0.06013331873139815,-0.12659140075220987,0,70,255.0,255.0,255.0
73,3.6500000000000004,5.28127903195781,-2.017471000070557,-4.030743586960099,1.0072337032227436,-0.8896499993752319,-1.7791182681237376,0.0643703406334747,-0.05573332652298732,-0.11598690760426102,0,70,255.0,255.0,255.0
74,3.7,5.331718148296833,-2.062021333367385,-4.119840065461979,1.010270315380028,-0.8923266658961709,-1.784652501175252,0.057094145657906,-0.051333334314576526,-0.10538241445631225,0,70,255.0,255.0,255.0
75,3.75,5.3823,-2.1067,-4.2092,1.0129431177885344,-0.8947833328066895,-1.7896565095693688,0.04981795068233552,-0.046933342106163956,-0.0947779213083706,0,70,255.0,255.0,255.0
76,3.8000000000000003,5.433007087604532,-2.1514957333168274,-4.298796690380639,1.015293571927792,-0.8970039998436025,-1.7941189556668375,0.044200214887972294,-0.04189333937035344,-0.08371992259037307,0,70,255.0,255.0,255.0
77,3.85,5.483824675746284,-2.1963961999820802,-4.388602680567752,1.0173631392773317,-0.8989726667437249,-1.7980285018284061,0.03858247909360911,-0.03685333663454297,-0.07266192387237565,0,70,255.0,255.0,255.0
78,3.9000000000000004,5.5347387200857705,-2.24138879998892,-4.478590325564547,1.019151819837153,-0.9006893335070568,-1.801385148054075,0.03296474329924588,-0.03181333389873245,-0.061603925154378125,0,70,255.0,255.0,255.0
79,3.95,5.585735176283505,-2.2864609333305066,-4.568731980374229,1.0206596136072563,-0.9021540001335981,-1.804188894343844,0.027347007504882705,-0.02677333116292198,-0.0505459264363807,0,70,255.0,255.0,255.0
80,4.0,5.6368,-2.3316,-4.659,1.0218865205876413,-0.903366666623349,-1.806439740697713,0.021729271710519527,-0.02173332842711151,-0.03948792771839038,0,70,255.0,255.0,255.0
81,4.05,5.687919482259917,-2.376792933326348,-4.749366995481208,1.0228526626269923,-0.904299333123496,-1.8081530492841313,0.016916409863521425,-0.015573331578768744,-0.029044415738336264,0,70,255.0,255.0,255.0
82,4.1000000000000005,5.739081255544494,-2.422024799981643,-4.839806602001764,1.0235781615739934,-0.9049239997812258,-1.8093441822715468,0.01210354801652324,-0.009413334730425871,-0.01860090375828196,0,70,255.0,255.0,255.0
83,4.15,5.790273287699112,-2.467280199973764,-4.930292710781714,1.0240630174286447,-0.9052406665965386,-1.8100131396599592,0.00729068616952514,-0.0032533378820831065,-0.008157391778227843,0,70,255.0,255.0,255.0
84,4.2,5.841483546569153,-2.5125437333105896,-5.020799213041109,1.024307230190946,-0.9052493335694342,-1.8101599214493693,0.00247782432252704,0.002906658966259655,0.0022861202018262736,0,70,255.0,255.0,255.0
85,4.25,5.8927,-2.5578,-5.1113,1.0243107998608973,-0.9049500006999125,-1.8097845276397768,-0.0023350375244781674,0.009066655814605085,0.012729632181883943,0,70,255.0,255.0,255.0
86,4.3,5.943909383355798,-2.603034133377781,-5.201768927694527,1.023999777564233,-0.9043746676624119,-1.8088848471966377,-0.010105854342093296,0.013946665685417498,0.023257585543677767,0,70,255.0,255.0,255.0
87,4.3500000000000005,5.9950935020757425,-2.648233400091349,-5.292179711425196,1.0233002144266878,-0.9035553341313708,-1.807458769085409,-0.017876671159708563,0.018826675556229994,0.033785538905471785,0,70,255.0,255.0,255.0
88,4.4,6.046232929117786,-2.6933856001160263,-5.382506031308601,1.0222121104482622,-0.9024920001067889,-1.8055062933060906,-0.02564748797732369,0.023706685427042407,0.04431349226726561,0,70,255.0,255.0,255.0
89,4.45,6.097308237439886,-2.738478533427135,-5.472721567461337,1.0207354656289558,-0.9011846655886665,-1.8030274198586824,-0.03341830479493882,0.02858669529785482,0.05484144562905943,0,70,255.0,255.0,255.0
90,4.5,6.1483,-2.7835,-5.5628,1.0188702799687683,-0.8996333305770035,-1.8000221487431847,-0.0411891216125575,0.03346670516867256,0.06536939899086036,0,70,255.0,255.0,255.0
91,4.55,6.199190184316889,-2.8284377331625272,-5.652714893740681,1.0167002271160768,-0.8978339962268594,-1.7964835619293222,-0.045612992495100695,0.03850666883708945,0.07617407356363014,0,70,255.0,255.0,255.0
92,4.6000000000000005,6.249966336152539,-2.873279199652963,-5.742439352297456,1.0143089807192582,-0.8957826636932944,-1.7924047413868216,-0.05003686337764397,0.043546632505506416,0.08697874813640011,0,70,255.0,255.0,255.0
93,4.65,6.300617395829746,-2.9180117995621337,-5.831946363983888,1.0116965407783125,-0.8934793329763088,-1.7877856871156823,-0.05446073426018717,0.0485865961739233,0.09778342270916987,0,70,255.0,255.0,255.0
94,4.7,6.351132303671301,-2.962622932980869,-5.921208917113547,1.0088629072932396,-0.8909240040759021,-1.7826263991159048,-0.05888460514273036,0.05362655984234019,0.10858809728193965,0,70,255.0,255.0,255.0
95,4.75,6.4015,-3.0071,-6.0102,1.0058080802640395,-0.8881166769920746,-1.7769268773874884,-0.06330847602527001,0.058666523510761515,0.11939277185471298,0,70,255.0,255.0,255.0
96,4.800000000000001,6.45170827937665,-3.0514301339721093,-6.098893097342747,1.00246331397147,-0.885041347430149,-1.7707169050860745,-0.07048217567750835,0.06434665896626325,0.1290061202018394,0,70,255.0,255.0,255.0
97,4.8500000000000005,6.501740353314105,-3.095599401296803,-6.187263679384985,0.9987598626962886,-0.8816820110954483,-1.7640262653673044,-0.07765587532974658,0.07002679442176489,0.13861946854896567,0,70,255.0,255.0,255.0
98,4.9,6.551578287563235,-3.1395936016354407,-6.275287712755854,0.9946977264384953,-0.8780386679879725,-1.7568549582311779,-0.08482957498198479,0.07570692987726652,0.14823281689609197,0,70,255.0,255.0,255.0
99,4.95,6.60120414787491,-3.183398534649386,-6.36294116408448,0.9902769051980902,-0.8741113181077217,-1.7492029836776954,-0.092003274634223,0.08138706533276815,0.15784616524321823,0,70,255.0,255.0,255.0
100,5.0,6.6506,-3.227,-6.4502,0.985497398975073,-0.8698999614546957,-1.741070341706856,-0.09917697428646122,0.08706720078827335,0.16745951359034628,0,70,255.0,255.0,255.0
101,5.050000000000001,6.699748698176517,-3.270384130949038,-6.53703911688834,0.9804065169980382,-0.8654246140525427,-1.7323928177263712,-0.10445830479492892,0.0919466952978463,0.17964144562904333,0,70,255.0,255.0,255.0
102,5.1000000000000005,6.748636250591048,-3.31353839515983,-6.623429130162607,0.9750515684955802,-0.8607052919249111,-1.7231061971439516,-0.1097396353033965,0.09682618980741915,0.19182337766774019,0,70,255.0,255.0,255.0
103,5.15,6.797249453917319,-3.3564505938961036,-6.709339584992701,0.9694325534676986,-0.8557419950718008,-1.7132104799595973,-0.1150209658118641,0.10170568431699202,0.20400530970643702,0,70,255.0,255.0,255.0
104,5.2,6.84557510482906,-3.3991085284215847,-6.794740026548531,0.9635494719143938,-0.8505347234932119,-1.702705666173308,-0.12030229632033171,0.10658517882656487,0.21618724174513387,0,70,255.0,255.0,255.0
105,5.25,6.8936,-3.4415,-6.8796,0.9574023238356654,-0.8450834771891444,-1.691591755785084,-0.12558362682879842,0.11146467333613685,0.2283691737838236,0,70,255.0,255.0,255.0
106,5.300000000000001,6.941310527917285,-3.483612542231743,-6.9638904351039015,0.9509666180363775,-0.8393721963596822,-1.67995182400844,-0.13184460514271157,0.11698655984234783,0.23722809728192806,0,70,255.0,255.0,255.0
107,5.3500000000000005,6.988691444321709,-3.5254326180638804,-7.047587799964597,0.9442178633213941,-0.8333848212049095,-1.667868946056891,-0.1381055834566246,0.12250844634855873,0.24608702078003236,0,70,255.0,255.0,255.0
108,5.4,7.035727096767495,-3.5669464227801453,-7.130669947273341,0.9371560596907151,-0.8271213517248265,-1.6553431219304369,-0.14436656177053764,0.1280303328547696,0.25494594427813666,0,70,255.0,255.0,255.0
109,5.45,7.082401832808854,-3.608140151664274,-7.213114729721391,0.9297812071443404,-0.8205817879194327,-1.6423743516290774,-0.15062754008445067,0.1335522193609805,0.26380486777624096,0,70,255.0,255.0,255.0
110,5.5,7.1287,-3.649,-7.2949,0.9220933056822701,-0.8137661297887284,-1.628962635152813,-0.15688851839836193,0.13907410586719138,0.2726637912743435,0,70,255.0,255.0,255.0
111,5.550000000000001,7.174605990154351,-3.6895121001239923,-7.376002342696062,0.9140950108564548,-0.8066706005087291,-1.615031886239873,-0.16304327463424456,0.14474706533277562,0.28456616524325057,0,70,255.0,255.0,255.0
112,5.6000000000000005,7.220104372122116,-3.729662332584652,-7.4563932699790145,0.9057889782188456,-0.7992914232554508,-1.6005060186284878,-0.16919803087012705,0.15042002479835978,0.2964685392121575,0,70,255.0,255.0,255.0
113,5.65,7.265179759012706,-3.769436514983316,-7.536043025913937,0.8971752077694422,-0.7916285980288932,-1.5853850323186574,-0.17535278710600957,0.15609298426394394,0.3083709131810644,0,70,255.0,255.0,255.0
114,5.7,7.30981676393553,-3.8088204649213195,-7.614921854565905,0.8882536995082447,-0.7836821248290565,-1.5696689273103817,-0.18150754334189206,0.16176594372952807,0.3202732871499713,0,70,255.0,255.0,255.0
115,5.75,7.354,-3.8478,-7.693,0.8790244534352532,-0.7754520036559405,-1.55335770360366,-0.18766229957777014,0.16743890319511223,0.3321756611188835,0,70,255.0,255.0,255.0
116,5.800000000000001,7.397714311465315,-3.88636145727229,-7.770248194111858,0.8695013385378004,-0.7669694016053986,-1.5364806310320596,-0.19326229632033154,0.17186517882655686,0.3429072417451271,0,70,255.0,255.0,255.0
117,5.8500000000000005,7.440945467189829,-3.924493251597514,-7.846639120119351,0.8596982238032199,-0.7582654857732847,-1.5190669794291471,-0.19886229306289285,0.17629145445800137,0.3536388223713705,0,70,255.0,255.0,255.0
118,5.9,7.483679467181685,-3.9621843172865923,-7.9221459490709165,0.8496151092315113,-0.7493402561595985,-1.5011167487949229,-0.20446228980545417,0.18071773008944592,0.3643704029976139,0,70,255.0,255.0,255.0
119,5.95,7.525902311449027,-3.9994235886504477,-7.996741852014987,0.8392519948226745,-0.7401937127643402,-1.4826299391293858,-0.21006228654801548,0.18514400572089046,0.3751019836238573,0,70,255.0,255.0,255.0
120,6.0,7.5676,-4.0362,-8.0704,0.8286088805767098,-0.7308258555875097,-1.4636065504325373,-0.21566228329057857,0.1895702813523359,0.38583356425009896,0,70,255.0,255.0,255.0
121,6.050000000000001,7.608758363984392,-4.0725020707868484,-8.143094480856512,0.8176756349923342,-0.7212117930696765,-1.4441015896318794,-0.22166754008443953,0.1949922193609832,0.3943648677762071,0,70,255.0,255.0,255.0
122,6.1000000000000005,7.649362559118571,-4.1083166610252935,-8.214803049543583,0.8064421265682657,-0.7113266336514112,-1.4241700636549162,-0.2276727968783004,0.20041415736963042,0.40289617130231514,0,70,255.0,255.0,255.0
123,6.15,7.689397572260557,-4.143630215870315,-8.285504377802399,0.7949083553045042,-0.7011703773327136,-1.403811972501648,-0.23367805367216127,0.20583609537827763,0.4114274748284232,0,70,255.0,255.0,255.0
124,6.2,7.72884839026836,-4.178429180476892,-8.355177137374143,0.7830743212010497,-0.6907430241135836,-1.383027316172074,-0.23968331046602212,0.21125803338692484,0.41995877835453116,0,70,255.0,255.0,255.0
125,6.25,7.7677,-4.2127,-8.4238,0.7709400242579021,-0.6800445739940211,-1.361816094666195,-0.24568856725988297,0.2166799713955747,0.4284900818806463,0,70,255.0,255.0,255.0
126,6.300000000000001,7.80593703259712,-4.246428659580318,-8.491349082462099,0.7584841214928578,-0.6690474261158935,-1.3400250104404285,-0.2525475433418774,0.22320594372952174,0.4431532871499984,0,70,255.0,255.0,255.0
127,6.3500000000000005,7.843542696335884,-4.2795993043013105,-8.55779028170632,0.7456852699237142,-0.6577239796210688,-1.317500765951195,-0.2594065194238717,0.22973191606346866,0.4578164924193503,0,70,255.0,255.0,255.0
128,6.4,7.880499843776089,-4.312195619232146,-8.623086939719492,0.7325434695504708,-0.6460742345095467,-1.2942433611984936,-0.266265495505866,0.23625788839741557,0.4724796976887022,0,70,255.0,255.0,255.0
129,6.45,7.9167913274775294,-4.344201289441987,-8.687202398488445,0.7190587203731278,-0.6340981907813273,-1.270252796182325,-0.2731244715878603,0.2427838607313625,0.487142902958054,0,70,255.0,255.0,255.0
130,6.5,7.9524,-4.3756,-8.7501,0.7052310223916849,-0.6217958484364106,-1.2455290709026885,-0.2799834476698564,0.24930983306531118,0.5018061082274059,0,70,255.0,255.0,255.0
131,6.550000000000001,7.9873103056271315,-4.406377690891883,-8.811748389295103,0.6911558790362374,-0.6093025024667551,-1.2203903686064064,-0.28302228654803446,0.25042400572090034,0.5037419836238612,0,70,255.0,255.0,255.0
132,6.6000000000000005,8.021513055537893,-4.436529321769464,-8.872137423631143,0.6769287937368813,-0.5967534478643204,-1.195154872540302,-0.2860611254262125,0.25153817837648945,0.5056778590203166,0,70,255.0,255.0,255.0
133,6.65,8.055000652635089,-4.466052107201102,-8.931262263319635,0.6625497664936163,-0.5841486846291062,-1.1698225827043751,-0.28909996430439056,0.25265235103207856,0.5076137344167719,0,70,255.0,255.0,255.0
134,6.7,8.08776549982152,-4.49494326175516,-8.989118068672084,0.6480187973064424,-0.5714882127611126,-1.144393499098625,-0.2921388031825686,0.2537665236876677,0.5095496098132273,0,70,255.0,255.0,255.0
135,6.75,8.1198,-4.5232,-9.0457,0.6333358861753596,-0.5587720322603397,-1.1188676217230522,-0.2951776420607439,0.25488069634325417,0.5114854852096844,0,70,255.0,255.0,255.0
136,6.800000000000001,8.151091344894356,-4.550810976852153,-9.100989360357499,0.6181883623621905,-0.545486564017085,-1.092413515133947,-0.3107233104660093,0.2765380333869272,0.5466787783545116,0,70,255.0,255.0,255.0
137,6.8500000000000005,8.181605881512548,-4.577730608620839,-9.154912023769109,0.6022635551287585,-0.5311182289216467,-1.064199743887601,-0.3262689788712745,0.2981953704305998,0.5818720714993383,0,70,255.0,255.0,255.0
138,6.9,8.211304745683563,-4.603904751963448,-9.20738000700197,0.5855614644750633,-0.5156670269740251,-1.0342263079840133,-0.3418146472765396,0.3198527074742724,0.617065364644165,0,70,255.0,255.0,255.0
139,6.95,8.240149073236383,-4.629279263537372,-9.258305326823221,0.5680820904011047,-0.4991329581742197,-1.0024932074231845,-0.35736031568180476,0.34151004451794503,0.6522586577889915,0,70,255.0,255.0,255.0
140,7.0,8.2681,-4.6538,-9.3076,0.5498254329068829,-0.4815160225222307,-0.9690004422051145,-0.3729059840870663,0.36316738156161765,0.6874519509338155,0,70,255.0,255.0,255.0
141,7.050000000000001,8.295117114795444,-4.677408001699506,-9.355174169274912,0.5306986715150088,-0.46252724146490587,-0.9336355708578167,-0.3921644715878899,0.39638386073136433,0.7271429029580742,0,70,255.0,255.0,255.0
142,7.1000000000000005,8.321153818411917,-4.700025043747182,-9.400930481292429,0.5106089857480937,-0.44187763644909406,-0.8962861519093067,-0.4114229590887131,0.4296003399011104,0.766833854982332,0,70,255.0,255.0,255.0
143,7.15,8.346161964630669,-4.721568084945107,-9.444769708672489,0.4895563756061376,-0.419567207474795,-0.8569521853595838,-0.4306814465895364,0.4628168190708565,0.8065248070065899,0,70,255.0,255.0,255.0
144,7.2,8.370093407232948,-4.7419540840953545,-9.486592624035033,0.46754084108914024,-0.3955959545420086,-0.815633671208648,-0.4499399340903596,0.49603329824060255,0.8462157590308479,0,70,255.0,255.0,255.0
145,7.25,8.3929,-4.7611,-9.5263,0.44456238219710176,-0.36996387765073496,-0.7723306094564993,-0.46919842159118463,0.5292497774103491,0.8859067110551075,0,70,255.0,255.0,255.0
146,7.300000000000001,8.414547395923869,-4.778952216349825,-9.563824362542858,0.42144895157775814,-0.34443647012328443,-0.7289482014347897,-0.45533880318254594,0.49184652368765686,0.8493896098132563,0,70,255.0,255.0,255.0
147,7.3500000000000005,8.435056444839782,-4.795574816390431,-9.599225251061181,0.3990285018788469,-0.320779225281969,-0.6873916484751732,-0.4414791847739075,0.4544432699649653,0.8128725085714057,0,70,255.0,255.0,255.0
148,7.4,8.454461795793762,-4.811061308256124,-9.632593958308078,0.37730103310036756,-0.29899214312678807,-0.6476609505776494,-0.42761956636526904,0.4170400162422737,0.7763554073295551,0,70,255.0,255.0,255.0
149,7.45,8.472798097831825,-4.825505200081212,-9.664021777036648,0.35626654524232015,-0.27907522365774173,-0.609756107742218,-0.4137599479566306,0.37963676251958217,0.7398383060877045,0,70,255.0,255.0,255.0
150,7.5,8.4901,-4.839,-9.6936,0.3359250383047046,-0.26102846687482995,-0.5736771199688792,-0.3999003295479935,0.3422335087968911,0.7033212048458557,0,70,255.0,255.0,255.0
151,7.550000000000001,8.506399701509078,-4.851630332901196,-9.72141238055366,0.31612952217395973,-0.2443188780419588,-0.5389716234030085,-0.39192031568179075,0.32615004451794627,0.684898657788948,0,70,255.0,255.0,255.0
152,7.6000000000000005,8.521719602228952,-4.8634452906910965,-9.747512514462848,0.2967330067365253,-0.22841346242303515,-0.505187254189984,-0.38394030181558814,0.3100665802390017,0.6664761107320405,0,70,255.0,255.0,255.0
153,7.65,8.536079652194287,-4.8744850820303975,-9.771946458095206,0.27773549199240105,-0.21331222001805872,-0.47232401232980475,-0.3759602879493855,0.29398311596005716,0.6480535636751331,0,70,255.0,255.0,255.0
154,7.7,8.549499801439746,-4.884789915579801,-9.794760267818377,0.2591369779415869,-0.19901515082702953,-0.4403818978224709,-0.3679802740831829,0.2778996516811126,0.6296310166182256,0,70,255.0,255.0,255.0
155,7.75,8.562,-4.8944,-9.816,0.24093746458408288,-0.18552225484994755,-0.40936091066798236,-0.3600002602169807,0.26181618740216717,0.6112084695613205,0,70,255.0,255.0,255.0
156,7.800000000000001,8.573599398039818,-4.903359252045396,-9.835714115242501,0.2230889597263986,-0.173056017708878,-0.3794053049531771,-0.35393993409037916,0.23683329824060878,0.5870157590308727,0,70,255.0,255.0,255.0
157,7.8500000000000005,8.584313946244412,-4.91172642084519,-9.853960691087428,0.20554347117504476,-0.16183892502588654,-0.3506593347648948,-0.34787960796377776,0.2118504090790508,0.5628230485004252,0,70,255.0,255.0,255.0
158,7.9,8.594158795429095,-4.919563963622286,-9.870800209311101,0.18830099893002097,-0.15187097680097297,-0.32312300010313477,-0.3418192818371763,0.18686751991749287,0.5386303379699778,0,70,255.0,255.0,255.0
159,7.95,8.603149096409187,-4.9269343375995875,-9.886293151689848,0.17136154299132725,-0.1431521730341373,-0.29679630096789716,-0.3357589557105749,0.1618846307559349,0.5144376274395304,0,70,255.0,255.0,255.0
160,8.0,8.6113,-4.9339,-9.9005,0.1547251033589636,-0.13568251372537957,-0.2716792373591819,-0.32969862958397345,0.1369017415943763,0.490244916909083,0,70,255.0,255.0,255.0
161,8.05,8.618628306331647,-4.940521458917224,-9.913479958476332,0.13849063892044874,-0.12934505112253053,-0.24769515678426232,-0.31967994795661175,0.11659676251958165,0.4691183060876875,0,70,255.0,255.0,255.0
162,8.1,8.625157412793401,-4.946851425928149,-9.925287121187443,0.12275710856330253,-0.12402283747342141,-0.22476740675041332,-0.3096612663292504,0.09629178344478771,0.4479916952662928,0,70,255.0,255.0,255.0
163,8.15,8.630912366089332,-4.952940663480462,-9.93597430466039,0.10752451228752384,-0.11971587277805182,-0.20289598725763322,-0.29964258470188865,0.07598680436999307,0.42686508444489735,0,70,255.0,255.0,255.0
164,8.200000000000001,8.63591821292351,-4.95883993402185,-9.945594325422224,0.09279285009311324,-0.116424157036422,-0.18208089830592297,-0.28962390307452696,0.05568182529519841,0.40573847362350185,0,70,255.0,255.0,255.0
165,8.25,8.6402,-4.9646,-9.9542,0.07856212198007125,-0.11414769024853196,-0.16232213989528319,-0.27960522144716515,0.03537684622040438,0.38461186280210713,0,70,255.0,255.0,255.0
166,8.3,8.643780976633595,-4.9702725122857085,-9.961845250852171,0.06472448459181197,-0.11293977780099394,-0.14368606790977512,-0.27390027408319756,0.012939651681115608,0.36083101661820516,0,70,255.0,255.0,255.0
167,8.35,8.646677202581985,-4.975912675442215,-9.968588424162798,0.05117209457175157,-0.11285372508042037,-0.12623903823346275,-0.26819532671923013,-0.009497542858172364,0.33705017043430396,0,70,255.0,255.0,255.0
168,8.4,8.648902940213574,-4.981576582455867,-9.97448897204734,0.037904951919889074,-0.1138895320868112,-0.10998105086634488,-0.2624903793552625,-0.03193473739746114,0.313269324250402,0,70,255.0,255.0,255.0
169,8.450000000000001,8.650472451896777,-4.987320326313013,-9.979606346621253,0.024923056636224957,-0.11604719882016652,-0.09491210580842212,-0.2567854319912949,-0.05437193193674991,0.28948847806649997,0,70,255.0,255.0,255.0
170,8.5,8.6514,-4.9932,-9.984,0.012226408720759674,-0.11932672528048614,-0.08103220305969494,-0.25108048462732746,-0.0768091264760381,0.26570763188259927,0,70,255.0,255.0,255.0
171,8.55,8.65170138713397,-4.999271691939939,-9.987727838114983,-9.257728768842583e-05,-0.12372783767348937,-0.06824857157664035,-0.2416789557105895,-0.09923536924408818,0.24563762743957704,0,70,255.0,255.0,255.0
172,8.6,8.651398576878663,-5.005591472302989,-9.990841582161366,-0.011941486850299207,-0.12925026220489488,-0.056468440315737285,-0.2322774267938519,-0.12166161201213747,0.22556762299655553,0,70,255.0,255.0,255.0
173,8.65,8.65051507305637,-5.012215406696068,-9.99339140715026,-0.023320319967073514,-0.1358939988747031,-0.045691809276984914,-0.22287589787711395,-0.14408785478018754,0.20549761855353332,0,70,255.0,255.0,255.0
174,8.700000000000001,8.649074379489385,-5.0191995607261,-9.995427488092767,-0.03422907663801092,-0.14365904768291385,-0.035918678460383664,-0.21347436896037603,-0.16651409754823765,0.1854276141105111,0,70,255.0,255.0,255.0
175,8.75,8.6471,-5.0266,-9.997,-0.04466775686311106,-0.15254540862952676,-0.02714904786593383,-0.20407284004363846,-0.18894034031628637,0.16535760966748972,0,70,255.0,255.0,255.0
176,8.8,8.644615074830527,-5.034472719954534,-9.998161796687898,-0.05465817544106484,-0.16254887150505348,-0.019543645783659584,-0.19554390307450734,-0.21119817470477611,0.13885847362347573,0,70,255.0,255.0,255.0
177,8.85,8.641641289903367,-5.042873435345829,-9.998976447191735,-0.06422214717056174,-0.17366522610000426,-0.01326320050358626,-0.18701496610537652,-0.23345600909326508,0.11235933757946265,0,70,255.0,255.0,255.0
178,8.9,8.638199967560945,-5.051857790759858,-9.999510199351626,-0.07335967205160242,-0.18589447241437992,-0.008307712025713409,-0.17848602913624542,-0.2557138434817548,0.08586020153544865,0,70,255.0,255.0,255.0
179,8.950000000000001,8.634312430145682,-5.061481430782591,-9.999829301007678,-0.08207075008418653,-0.19923661044818008,-0.004677180350041275,-0.1699570921671143,-0.27797167787024457,0.05936106549143465,0,70,255.0,255.0,255.0
180,9.0,8.63,-5.0718,-10.0,-0.0903553812683138,-0.21369164020140427,-0.0023716054765699187,-0.16142815519798304,-0.3002295122587333,0.0328619294474216,0,70,255.0,255.0,255.0
181,9.05,8.625283113543924,-5.082860628241926,-10.000080975133427,-0.09826672094804582,-0.22874867630629164,-0.000936845288721755,-0.1550254319912931,-0.302051931936752,0.024528478066504128,0,70,255.0,255.0,255.0
182,9.1,8.620178663507868,-5.094676386313695,-10.000100629071689,-0.10585792446744308,-0.24389683339507937,8.12423300805004e-05,-0.1486227087846034,-0.30387435161477067,0.01619502668558696,0,70,255.0,255.0,255.0
183,9.15,8.614702656699851,-5.107251830264499,-10.000079795443238,-0.11312899182650608,-0.2591361114677686,0.0006826573798369199,-0.14221998557791346,-0.3056967712927893,0.00786157530466949,0,70,255.0,255.0,255.0
184,9.200000000000001,8.60887109992789,-5.120591516143536,-10.000039307876524,-0.12007992302523461,-0.2744665105243587,0.0008673998605474606,-0.13581726237122355,-0.30751919097080804,-0.00047187607624797623,0,70,255.0,255.0,255.0
185,9.25,8.6027,-5.1347,-10.0,-0.1267107180636284,-0.28988803056484924,0.0006354697722121376,-0.12941453916453383,-0.3093416106488256,-0.008805327457165148,0,70,255.0,255.0,255.0
186,9.3,8.596200470993782,-5.149579967077761,-9.999978302778391,-0.13331494076675157,-0.3052884232697768,0.0002510269385458962,-0.13475436896038934,-0.306674097548268,-0.006572385889484288,0,70,255.0,255.0,255.0
187,9.35,8.589364056065161,-5.165226619399393,-9.999973036521505,-0.1401861549596673,-0.3205554403196759,-2.1768816736292772e-05,-0.14009419875624465,-0.30400658444771056,-0.004339444321803507,0,70,255.0,255.0,255.0
188,9.4,8.582177405639651,-5.181633288182145,-9.999978618875424,-0.14732436064237603,-0.33568908171454775,-0.00018291749363444896,-0.14543402855210016,-0.301339071347153,-0.0021065027541226477,0,70,255.0,255.0,255.0
189,9.450000000000001,8.574627170142762,-5.198793304643264,-9.99998946748623,-0.1547295578148775,-0.3506893474543917,-0.00023241909214856047,-0.15077385834795567,-0.2986715582465954,0.00012643881355821167,0,70,255.0,255.0,255.0
190,9.5,8.5667,-5.2167,-10.0,-0.1624017464771715,-0.36555623753920724,-0.00017027361227863177,-0.156113688143811,-0.2960040451460375,0.002359380381238992,0,70,255.0,255.0,255.0
191,9.55,8.558384602480954,-5.2353467034470285,-10.000005813753008,-0.17021751598494467,-0.3802896306146136,-6.726246546182998e-05,-0.15651709216711152,-0.2933316778702081,0.0017610654914330206,0,70,255.0,255.0,255.0
192,9.600000000000001,8.549677912231488,-5.254726736088733,-10.000007224842287,-0.1780534556938829,-0.39488940532622846,5.83293686467281e-06,-0.15692049619041204,-0.2906593105943786,0.0011627506016270493,0,70,255.0,255.0,255.0
193,9.65,8.540578920741545,-5.274833417006921,-10.000005729055063,-0.18590956560398583,-0.40935556167405135,4.9012594700875565e-05,-0.15732390021371256,-0.2879869433185493,0.0005644357118210991,0,70,255.0,255.0,255.0
194,9.700000000000001,8.531086619501068,-5.295660065283407,-10.00000282217856,-0.1937858457152541,-0.4236880996580833,6.227650804678148e-05,-0.1577273042370131,-0.28531457604271987,-3.387917798487218e-05,0,70,255.0,255.0,255.0
195,9.75,8.5212,-5.3172,-10.0,-0.20168229602768706,-0.4378870192783232,4.562467690238948e-05,-0.1581307082603125,-0.28264220876689095,-0.0006321940677908224,0,70,255.0,255.0,255.0
196,9.8,8.51091711908241,-5.339446819134126,-9.999998442209575,-0.2096549952934758,-0.4519690542717657,1.802292330142363e-05,-0.16077726237123344,-0.28063919097080237,-0.0004718760762477962,0,70,255.0,255.0,255.0
197,9.850000000000001,8.500232295008894,-5.36239523624568,-9.999998064109343,-0.21776002226481064,-0.46595093837540386,-1.5629307223908025e-06,-0.16342381648215437,-0.27863617317471384,-0.00031155808470477,0,70,255.0,255.0,255.0
198,9.9,8.489138911394171,-5.38604024379017,-9.999998464904321,-0.2259973769416912,-0.479832671589237,-1.3132885169053543e-05,-0.16607037059307522,-0.2766331553786253,-0.0001512400931617495,0,70,255.0,255.0,255.0
199,9.950000000000001,8.477630351852966,-5.410376834223107,-9.999999243799534,-0.2343670593241181,-0.4936142539132663,-1.6686940038565417e-05,-0.16871692470399613,-0.27463013758253674,9.077898381276727e-06,0,70,255.0,255.0,255.0
200,10.0,8.4657,-5.4354,-10.0,-0.24286906941209077,-0.5072956853474906,-1.222509533092616e-05,-0.17136347881491765,-0.27262711978645093,0.0001693958899242973,0,70,255.0,255.0,255.0
201,10.05,8.453341321189404,-5.461105220016466,-10.000000417408685,-0.25149850284116226,-0.5209061522983182,-4.829227743864525e-06,-0.17381385834793636,-0.27179155824664214,0.00012643881355816388,0,70,255.0,255.0,255.0
202,10.100000000000001,8.440548107732939,-5.487489918928549,-10.000000518720338,-0.26025045524688467,-0.5344748411721552,4.1878602489040636e-07,-0.17626423788095508,-0.27095599670683335,8.348173719203044e-05,0,70,255.0,255.0,255.0
203,10.15,8.427314233681772,-5.514552007832398,-10.000000411327647,-0.2691249266292577,-0.5480017519690012,3.5189459753385666e-06,-0.17871461741397368,-0.27012043516702455,4.052466082589851e-05,0,70,255.0,255.0,255.0
204,10.200000000000001,8.41363357308707,-5.542289397824166,-10.000000202623303,-0.278121916988282,-0.5614868846888575,4.471252107480171e-06,-0.1811649969469924,-0.26928487362721576,-2.4324155402349185e-06,0,70,255.0,255.0,255.0
205,10.25,8.3995,-5.5707,-10.0,-0.2872414263239569,-0.5749302393317229,3.2757044213151527e-06,-0.18361537648001125,-0.26844931208740963,-4.538949190636682e-05,0,70,255.0,255.0,255.0
206,10.3,8.38490799615997,-5.599780300800011,-9.999999888155678,-0.29644699334188274,-0.5882463365349755,1.2939876740344715e-06,-0.1846073042370179,-0.2641945760426837,-3.38791779848593e-05,0,70,255.0,255.0,255.0
207,10.350000000000001,8.369854474059347,-5.629521088040128,-9.999999861009305,-0.30570215674765894,-0.6013496969359916,-1.1221337717082547e-07,-0.1855992319940246,-0.2599398399979578,-2.2368864063351776e-05,0,70,255.0,255.0,255.0
208,10.4,8.35433695387874,-5.6599117248802395,-9.999999889785089,-0.3150069165412851,-0.6142403205347712,-9.428987323007187e-07,-0.18659115975103122,-0.255685103953232,-1.085855014184466e-05,0,70,255.0,255.0,255.0
209,10.450000000000001,8.338352955798754,-5.690941574480235,-9.99999994570725,-0.324361272722762,-0.6269182073313148,-1.1980683913552674e-06,-0.18758308750803787,-0.2514303679085061,6.517637796628586e-07,0,70,255.0,255.0,255.0
210,10.5,8.3219,-5.7226,-10.0,-0.3337652252920888,-0.6393833573256218,-8.777223543344534e-07,-0.18857501526504494,-0.24717563186378477,1.216207770116997e-05,0,70,255.0,255.0,255.0
211,10.55,8.304973894170713,-5.754879176783494,-10.000000029968596,-0.34332152379131436,-0.6518045015617797,-3.467229522733636e-07,-0.19367692470397288,-0.24967013758252857,9.07789838127332e-06,0,70,255.0,255.0,255.0
212,10.600000000000001,8.287563596029669,-5.787782528910944,-10.000000037242446,-0.3531329177624864,-0.6643503710838751,3.006748379289143e-08,-0.19877883414290085,-0.25216464330127236,5.993719061376671e-06,0,70,255.0,255.0,255.0
213,10.65,8.269656350803267,-5.821316292646648,-10.000000029531996,-0.36319940720560434,-0.677020965891907,2.5264895386430696e-07,-0.20388074358182862,-0.2546591490200161,2.909539741480131e-06,0,70,255.0,255.0,255.0
214,10.700000000000001,8.251239403717909,-5.855486704254901,-10.000000014547698,-0.37352099212066914,-0.6898162859858765,3.2102145794089795e-07,-0.20898265302075655,-0.2571536547387599,-1.7463957841651764e-07,0,70,255.0,255.0,255.0
215,10.75,8.2323,-5.8903,-10.0,-0.38409767250768,-0.702736331365783,2.3518499602266052e-07,-0.214084562459683,-0.2596481604575027,-3.258818898313059e-06,0,70,255.0,255.0,255.0
216,10.8,8.212824427157171,-5.925763792066016,-9.99999999196994,-0.39498691149284726,-0.7158636572179018,9.290413505898249e-08,-0.22148499694700013,-0.2654448736272417,-2.4324155402339825e-06,0,70,255.0,255.0,255.0
217,10.850000000000001,8.192795141821975,-5.961891196316099,-9.999999990020918,-0.40624617220238035,-0.7292808187285075,-8.056558000741143e-09,-0.22888543143431728,-0.2712415867969806,-1.6060121821549057e-06,0,70,255.0,255.0,255.0
218,10.9,8.172193642908194,-5.998696704533174,-9.999999992086925,-0.4178754546362789,-0.7429878158975997,-6.769708315650901e-08,-0.23628586592163417,-0.27703829996671936,-7.796088240758585e-07,0,70,255.0,255.0,255.0
219,10.950000000000001,8.151001429329607,-6.036194808500166,-9.999999996101955,-0.4298747587945437,-0.7569846487251793,-8.601744040832531e-08,-0.2436863004089513,-0.2828350131364583,4.6794534003218295e-08,0,70,255.0,255.0,255.0
220,11.0,8.1292,-6.0744,-10.0,-0.44224408467717385,-0.7712713172112455,-6.301762975618868e-08,-0.25108673489626865,-0.28863172630619616,8.73197892082265e-07,0,70,255.0,255.0,255.0
221,11.05,8.106773197200601,-6.1133208549524465,-10.00000000215165,-0.454842830237283,-0.7854928695666133,-2.48935879625663e-08,-0.252863087508091,-0.28023036790850875,6.517637796626086e-07,0,70,255.0,255.0,255.0
222,11.100000000000001,8.083714236682429,-6.152942285824664,-10.000000002673886,-0.4675303934279833,-0.7992943540020968,2.1587482100731e-09,-0.25463944011991335,-0.27182900951082134,4.3032966724295216e-07,0,70,255.0,255.0,255.0
223,11.15,8.060018677563958,-6.193243289220658,-10.000000002120302,-0.48030677424927426,-0.8126757705176954,1.8139378761729168e-08,-0.2564157927317356,-0.26342765111313426,2.0889555482330352e-07,0,70,255.0,255.0,255.0
224,11.200000000000001,8.03568207896366,-6.234202861744436,-10.000000001044478,-0.4931719727011568,-0.8256371191134101,2.3048303692403003e-08,-0.25819214534355794,-0.25502629271544686,-1.2538557596352896e-08,0,70,255.0,255.0,255.0
225,11.25,8.0107,-6.2758,-10.0,-0.5061259887836299,-0.83817839978924,1.6885523002094243e-08,-0.2599684979553798,-0.24662493431775978,-2.3397267001600148e-07,0,70,255.0,255.0,255.0
226,11.3,7.985068384040431,-6.318014388124203,-9.99999999942347,-0.5191457675580325,-0.8503408645156529,6.670216791282759e-09,-0.26082265302072066,-0.23987365473874922,-1.746395784164521e-07,0,70,255.0,255.0,255.0
227,11.350000000000001,7.958784711448308,-6.3608284603852505,-9.999999999283535,-0.5322082540857024,-0.8621657652631153,-5.784348395512149e-10,-0.2616768080860615,-0.23312237515973866,-1.1530648681690274e-07,0,70,255.0,255.0,255.0
228,11.4,7.931846846835972,-6.404225338584197,-9.999999999431866,-0.5453134483666388,-0.8736531020316267,-4.860431890407584e-09,-0.2625309631514023,-0.22637109558072832,-5.597339521735548e-08,0,70,255.0,255.0,255.0
229,11.450000000000001,7.904252654815756,-6.448188144522097,-9.999999999720133,-0.5584613504008425,-0.884802874821188,-6.175774361286643e-09,-0.26338511821674315,-0.21961981600171776,3.3596963821938727e-09,0,70,255.0,255.0,255.0
230,11.5,7.876,-6.4927,-10.0,-0.5716519601883129,-0.8956150836317984,-4.5244622521882995e-09,-0.26423927328208396,-0.21286853642270742,6.269278798174116e-08,0,70,255.0,255.0,255.0
231,11.55,7.8470860666376785,-6.5377447925507495,-10.00000000015448,-0.5849260995305885,-0.9061356723707774,-1.7872792025647295e-09,-0.2667263004089316,-0.2079550131364452,4.679453400320007e-08,0,70,255.0,255.0,255.0
232,11.600000000000001,7.817505317524335,-6.58330947263434,-10.000000000191976,-0.5983245902292064,-0.9164105849454433,1.549911481317748e-10,-0.26921332753577926,-0.20304148985018303,3.0896280024658986e-08,0,70,255.0,255.0,255.0
233,11.65,7.787251535092153,-6.629381756442555,-10.000000000152232,-0.6118474322841663,-0.9264398213557956,1.3023487999011864e-09,-0.2717003546626268,-0.19812796656392098,1.4998026046118464e-08,0,70,255.0,255.0,255.0
234,11.700000000000001,7.756318501773313,-6.675949360167181,-10.00000000007499,-0.625494625695469,-0.9362233816018353,1.6547937527435887e-09,-0.27418738178947444,-0.19321444327765877,-9.002279324226209e-10,0,70,255.0,255.0,255.0
235,11.75,7.7247,-6.723,-10.0,-0.6392661704631135,-0.9457612656835614,1.2123260066589535e-09,-0.2766744089163229,-0.18830091999139142,-1.679848191096314e-08,0,70,255.0,255.0,255.0
236,11.8,7.692389749408854,-6.770520841672803,-9.999999999958607,-0.6531658343196116,-0.9550204460012328,4.789000189761603e-10,-0.27931214534359444,-0.1820662927154614,-1.2538557596348172e-08,0,70,255.0,255.0,255.0
237,11.850000000000001,7.6593812184543495,-6.818496849077394,-9.99999999994856,-0.6671973849974733,-0.9639678949551078,-4.15297529758816e-11,-0.281949881770866,-0.17583166543953138,-8.278633281733205e-09,0,70,255.0,255.0,255.0
238,11.9,7.625667812795418,-6.866912435645584,-9.99999999995921,-0.6813608224966982,-0.972603612545186,-3.489633091971648e-10,-0.2845876181981375,-0.16959703816360155,-4.018708967118389e-09,0,70,255.0,255.0,255.0
239,11.950000000000001,7.591242938090989,-6.915752014809184,-9.999999999979906,-0.6956561468172869,-0.980927598771468,-4.4340064968771155e-10,-0.28722535462540905,-0.16336241088767153,2.412153474965779e-10,0,70,255.0,255.0,255.0
240,12.0,7.5561,-6.965,-10.0,-0.7100833579592389,-0.9889398536339531,-3.2484177444751447e-10,-0.2898630910526805,-0.15712778361174173,4.501139662111396e-09,0,70,255.0,255.0,255.0
241,12.05,7.5202333357269024,-7.014640640758042,-10.000000000011092,-0.724586563190974,-0.9966305436242899,-1.283208733399115e-10,-0.2902651182167144,-0.1504998160017265,3.3596963821926113e-09,0,70,255.0,255.0,255.0
242,12.100000000000001,7.483641008658264,-7.064657531056088,-10.000000000013783,-0.7391098697809108,-1.0039898352341259,1.1127863771751413e-11,-0.29066714538074834,-0.14387184839171122,2.218253102273827e-09,0,70,255.0,255.0,255.0
243,12.15,7.446322013726175,-7.115034100975112,-10.000000000010928,-0.7536532777290487,-1.011017728463461,9.35044368874724e-11,-0.29106917254478226,-0.1372438807816962,1.076809822355083e-09,0,70,255.0,255.0,255.0
244,12.200000000000001,7.408275345862723,-7.165753780596092,-10.000000000005384,-0.768216787035389,-1.0177142233122956,1.1880884600725742e-10,-0.2914711997088162,-0.13061591317168095,-6.463345756370134e-11,0,70,255.0,255.0,255.0
245,12.25,7.3695,-7.2168,-10.0,-0.7828003976999303,-1.0240793197806293,8.704109113110441e-11,-0.29187322687284833,-0.12398794556166415,-1.2060767374824452e-09,0,70,255.0,255.0,255.0
246,12.3,7.3299937076835295,-7.268156595295032,-9.999999999997028,-0.7974799129164886,-1.030137379501612,3.438347438348566e-11,-0.29530738178947546,-0.11833444327764182,-9.00227932422275e-10,0,70,255.0,255.0,255.0
247,12.350000000000001,7.289749146912587,-7.319809026698259,-9.999999999996307,-0.8123311358788783,-1.0359127641083936,-2.9817021111243604e-12,-0.29874153670610265,-0.11268094099361951,-5.943791273621047e-10,0,70,255.0,255.0,255.0
248,12.4,7.24875773229988,-7.371743160453969,-9.99999999999707,-0.8273540665870988,-1.041405473600974,-2.5054438352725138e-11,-0.30217569162272967,-0.1070274387095974,-2.8853032230194533e-10,0,70,255.0,255.0,255.0
249,12.450000000000001,7.207010878458113,-7.4239448628064535,-9.999999999998558,-0.8425487050411511,-1.0466155079793533,-3.183473434131823e-11,-0.30560984653935686,-0.10137393642557507,1.7318482758225015e-11,0,70,255.0,255.0,255.0
250,12.5,7.1645,-7.4764,-10.0,-0.8579150512410343,-1.0515428672435314,-2.3322590076903184e-11,-0.3090440014559803,-0.0957204341415494,3.2316728781838435e-10,0,70,255.0,255.0,255.0
251,12.55,7.121217433538974,-7.529094578061832,-10.000000000000796,-0.87339778514307,-1.056195938369262,-9.21302419403118e-12,-0.31026535462543947,-0.09040241088767004,2.4121534749648787e-10,0,70,255.0,255.0,255.0
252,12.600000000000001,7.077159203691384,-7.582015162150883,-10.00000000000099,-0.8889415867035787,-1.0605831083322985,7.989446727459414e-13,-0.3114867077948987,-0.08508438763379067,1.5926340717459137e-10,0,70,255.0,255.0,255.0
253,12.65,7.032322257074308,-7.6351484572090165,-10.000000000000783,-0.9045464559225598,-1.064704377132641,6.713316523428046e-12,-0.31270806096435777,-0.0797663643799115,7.731146685269781e-11,0,70,255.0,255.0,255.0
254,12.700000000000001,6.986703540304821,-7.688481168178102,-10.000000000000385,-0.9202123928000143,-1.0685597447702897,8.530091358015553e-12,-0.3139294141338169,-0.07444834112603213,-4.640473469198665e-12,0,70,255.0,255.0,255.0
255,12.75,6.9403,-7.742,-10.0,-0.9359393973359412,-1.072149211245244,6.249269176508324e-12,-0.31515076730326985,-0.06913031787214408,-8.659241379109229e-11,0,70,255.0,255.0,255.0
256,12.8,6.89310855816057,-7.795690692457645,-9.999999999999787,-0.951728946511243,-1.0754148670213395,2.468622392639049e-12,-0.3164311997087902,-0.061495913171670115,-6.463345756367655e-11,0,70,255.0,255.0,255.0
257,12.850000000000001,6.84512603832187,-7.849535124698218,-9.999999999999735,-0.9675825173068207,-1.0782988025624112,-2.1407657985942425e-13,-0.3177116321143105,-0.053861508471196154,-4.2674501336260836e-11,0,70,255.0,255.0,255.0
258,12.9,6.7963492394028835,-7.903514210709968,-9.999999999999789,-0.9835001097226739,-1.080801017868459,-1.7988277409870585e-12,-0.3189920645198308,-0.046227103770722464,-2.0715545108845893e-11,0,70,255.0,255.0,255.0
259,12.950000000000001,6.746774960322598,-7.957608864481147,-9.999999999999895,-0.9994817237588037,-1.0829215129394834,-2.285631090743966e-12,-0.32027249692535115,-0.03859269907024851,1.243411118569838e-12,0,70,255.0,255.0,255.0
260,13.0,6.6964,-8.0118,-10.0,-1.0155273594152088,-1.0846602877754838,-1.6744866291301127e-12,-0.32155292933087054,-0.03095829436976416,2.3202367345984794e-11,0,70,255.0,255.0,255.0
261,13.05,6.645220333818738,-8.066069852107592,-10.000000000000057,-1.0316864288119645,-1.0860965935453677,-6.61465376525019e-13,-0.3248098465393462,-0.02649393642559226,1.7318482758218375e-11,0,70,255.0,255.0,255.0
262,13.100000000000001,6.593228643021128,-8.12040593905625,-10.000000000000071,-1.048008344069144,-1.0873096814180432,5.736164669174962e-14,-0.3280667637478218,-0.02202957848142036,1.1434598170451958e-11,0,70,255.0,255.0,255.0
263,13.15,6.540416785314151,-8.17479709995111,-10.000000000000055,-1.0644931051867463,-1.0882995513935096,4.81994440520183e-13,-0.33132368095629733,-0.01756522053724862,5.550713582685751e-12,0,70,255.0,255.0,255.0
264,13.200000000000001,6.486776618404781,-8.229232173897314,-10.000000000000028,-1.0811407121647736,-1.089066203471768,6.124330049603123e-13,-0.3345805981647729,-0.013100862593076718,-3.331710050806682e-13,0,70,255.0,255.0,255.0
265,13.25,6.4323,-8.2837,-10.0,-1.0979511650032237,-1.0896096376528175,4.4867734001212656e-13,-0.33783751537324846,-0.008636504648904975,-6.217055592846876e-12,0,70,255.0,255.0,255.0
266,13.3,6.376979706564471,-8.338188299111984,-9.999999999999984,-1.1148693382409007,-1.089862758797191,1.7723911346102744e-13,-0.3388894141338241,-0.001488341126029167,-4.640473469196935e-12,0,70,255.0,255.0,255.0
267,13.350000000000001,6.320812189593608,-8.392680319076785,-9.99999999999998,-1.1318401064166066,-1.0897584717654203,-1.537000690757354e-14,-0.3399413128943998,0.005659822396846641,-3.063891345546995e-12,0,70,255.0,255.0,255.0
268,13.4,6.263794819340511,-8.447158189485592,-9.999999999999984,-1.1488634695303406,-1.0892967765575063,-1.291500210936738e-13,-0.3409932116549754,0.012807985919722192,-1.4873092218971102e-12,0,70,255.0,255.0,255.0
269,13.450000000000001,6.205924966058274,-8.501604039929598,-9.999999999999991,-1.165939427582104,-1.088477673173448,-1.6410092909728135e-13,-0.3420451104155511,0.019956149442598,8.92729017528306e-14,0,70,255.0,255.0,255.0
270,13.5,6.1472,-8.556,-10.0,-1.1830679805718955,-1.0873011616132464,-1.2022273091839357e-13,-0.3430970091761196,0.02710431296547,1.6658550254027153e-12,0,70,255.0,255.0,255.0
271,13.55,6.087616839923372,-8.610328951444469,-10.000000000000004,-1.2002762182244322,-1.085812371265866,-4.7491077319090434e-14,-0.3452324969253404,0.03244730092974216,1.2434111185693692e-12,0,70,255.0,255.0,255.0
272,13.600000000000001,6.02717059860443,-8.664576784636617,-10.000000000000005,-1.2175912302644303,-1.084056431520272,4.118380938545104e-15,-0.3473679846745612,0.03779028889401432,8.209672117360232e-13,0,70,255.0,255.0,255.0
273,13.65,5.965855937323804,-8.718730142106528,-10.000000000000004,-1.2350130166918882,-1.0820333423764645,3.4605643854512345e-14,-0.3495034724237819,0.04313327685828629,3.985233049026921e-13,0,70,255.0,255.0,255.0
274,13.700000000000001,5.903667517362117,-8.772775666384293,-10.000000000000002,-1.252541577506808,-1.0797431038344436,4.3970711428813447e-14,-0.35163896017300267,0.04847626482255845,-2.3920601930653995e-14,0,70,255.0,255.0,255.0
275,13.75,5.8406,-8.8267,-10.0,-1.2701769127091884,-1.077185715894209,3.221358366144773e-14,-0.3537744479222198,0.05381925278682509,-4.4636450876398505e-13,0,70,255.0,255.0,255.0
276,13.8,5.776648133742036,-8.880489495110137,-9.999999999999998,-1.287913788861364,-1.0743437561393645,1.2725195815334285e-14,-0.3557005981647919,0.059859137406957516,-3.331710050805415e-13,0,70,255.0,255.0,255.0
277,13.850000000000001,5.71180701598866,-8.934129342376755,-9.999999999999998,-1.305746972525668,-1.0711998021535132,-1.103516846606897e-15,-0.357626748407364,0.06589902202708994,-2.1997750139709797e-13,0,70,255.0,255.0,255.0
278,13.9,5.646071831364267,-8.987604442088303,-9.999999999999998,-1.3236764637021001,-1.0677538539366553,-9.272554324375634e-15,-0.35955289864993606,0.07193890664722216,-1.0678399771365841e-13,0,70,255.0,255.0,255.0
279,13.950000000000001,5.579437764493248,-9.040899694533238,-9.999999999999998,-1.3417022623906616,-1.064005911488791,-1.1781916617972501e-14,-0.36147904889250815,0.07797879126735457,6.4095059697851334e-15,0,70,255.0,255.0,255.0
280,14.0,5.5119,-9.094,-10.0,-1.3598243685913511,-1.0599559748099203,-8.631603727397326e-15,-0.3634051991350855,0.08401867588748146,1.1960300965322454e-13,0,70,255.0,255.0,255.0
281,14.05,5.443453825108479,-9.14688986811499,-10.0,-1.3780366263301174,-1.0555806041766682,-3.4097059422467243e-15,-0.3650851104155475,0.0909961494426015,8.927290175279654e-14,0,70,255.0,255.0,255.0
282,14.100000000000001,5.374094937440919,-9.19955224585637,-10.0,-1.3963328796329064,-1.05085635986566,2.9568644788245528e-16,-0.3667650216960095,0.09797362299772153,5.894279385236854e-14,0,70,255.0,255.0,255.0
283,14.15,5.303819137219122,-9.251969689540257,-10.0,-1.4147131284997179,-1.045783241876896,2.484573442990161e-15,-0.3684449329764714,0.1049510965528413,2.861268595194162e-14,0,70,255.0,255.0,255.0
284,14.200000000000001,5.2326222246648815,-9.304124755482764,-10.0,-1.4331773729305535,-1.040361250210376,3.1569550430765544e-15,-0.3701248442569334,0.11192857010796133,-1.7174219484863872e-15,0,70,255.0,255.0,255.0
285,14.25,5.1605,-9.356,-10.0,-1.4517256129254115,-1.0345903848661,2.312831248141582e-15,-0.3718047555373971,0.11890604366309176,-3.204752984891329e-14,0,70,255.0,255.0,255.0
286,14.3,5.087447765824042,-9.407579032429911,-10.0,-1.4703877058181711,-1.0285338271539597,9.1362795365261e-16,-0.3746789601729802,0.12335626482252245,-2.3920601930644794e-14,0,70,255.0,255.0,255.0
287,14.350000000000001,5.0134588342476505,-9.458849674197765,-10.0,-1.48919350894271,-1.0222547583838475,-7.922894492293135e-17,-0.3775531648085633,0.12780648598195313,-1.5793674012376296e-14,0,70,255.0,255.0,255.0
288,14.4,4.938526019759242,-9.50980079975066,-10.0,-1.5081430222990275,-1.0157531785557643,-6.657394475850283e-16,-0.3804273694441463,0.13225670714138363,-7.666746094108089e-15,0,70,255.0,255.0,255.0
289,14.450000000000001,4.862642136847219,-9.560421283535707,-10.0,-1.5272362458871245,-1.0090290876697092,-8.459035543337233e-16,-0.3833015740797294,0.1367069283008143,4.60181824160409e-16,0,70,255.0,255.0,255.0
290,14.5,4.7858,-9.6107,-10.0,-1.546473179707,-1.0020824857256827,-6.197212651690025e-16,-0.38617577871530706,0.14115714946025015,8.587109742428616e-15,0,70,255.0,255.0,255.0
291,14.55,4.707993511595347,-9.660624402165373,-10.0,-1.565788550397196,-0.9948280872074925,-2.4480587236371613e-16,-0.3864390488925199,0.14901879126735526,6.409505969782627e-15,0,70,255.0,255.0,255.0
292,14.600000000000001,4.629220925568465,-9.710176257352577,-10.0,-1.5851170845962523,-0.9871806065989469,2.1229331809269298e-17,-0.3867023190697328,0.15688043307446037,4.231902197136638e-15,0,70,255.0,255.0,255.0
293,14.65,4.549481583743908,-9.759335911457093,-10.0,-1.6044587823041692,-0.9791400439000465,1.7838434734995013e-16,-0.38696558924694563,0.16474207488156523,2.054298424490727e-15,0,70,255.0,255.0,255.0
294,14.700000000000001,4.468774827946233,-9.80808371037441,-10.0,-1.6238136435209467,-0.9707063991107905,2.266591742583374e-16,-0.3872288594241585,0.17260371668867033,-1.2330534815526305e-16,0,70,255.0,255.0,255.0
295,14.75,4.3871,-9.8564,-10.0,-1.6431816682465845,-0.9618796722311795,1.6605381253442785e-16,-0.38749212960136603,0.18046535849577516,-2.3009091208011738e-15,0,70,255.0,255.0,255.0
296,14.8,4.3044549877945615,-9.904266558908603,-10.0,-1.6626500925930425,-0.952745824016085,6.559553580225421e-17,-0.39124484425694567,0.18488857010799903,-1.7174219484857149e-15,0,70,255.0,255.0,255.0
297,14.850000000000001,4.220831863478481,-9.951670896391933,-10.0,-1.6823061526722798,-0.9433908152203793,-5.688382314146079e-18,-0.3949975589125253,0.1893117817202229,-1.133934776170256e-15,0,70,255.0,255.0,255.0
298,14.9,4.136221245265121,-9.998601954420963,-10.0,-1.702149848484295,-0.9338146458440629,-4.7797941814772056e-17,-0.3987502735681048,0.19373499333244662,-5.504476038548181e-16,0,70,255.0,255.0,255.0
299,14.950000000000001,4.050613751367838,-10.045048674966662,-10.0,-1.7221811800290898,-0.9240173158871348,-6.073314269962665e-17,-0.4025029882236844,0.19815820494467049,3.303956846064081e-17,0,70,255.0,255.0,255.0
300,15.0,3.964,-10.091,-10.0,-1.7424001473066633,-0.913998825349596,-4.449398496870898e-17,-0.4062557028792604,0.20258141655689155,6.16526740776079e-16,0,70,255.0,255.0,255.0
301,15.05,3.8763721372264,-10.136443762200225,-10.0,-1.762715079230638,-0.903692616728153,-1.7576270845300816e-17,-0.40634157407972327,0.20966692830081746,4.601818241602325e-16,0,70,255.0,255.0,255.0
302,15.100000000000001,3.7877284205176,-10.181363357079697,-10.0,-1.7830343047146362,-0.893032132519514,1.5241974473149141e-18,-0.4064274452801861,0.2167524400447434,3.0383690754438594e-16,0,70,255.0,255.0,255.0
303,15.15,3.698068635195603,-10.225741070859055,-10.0,-1.8033578237586565,-0.8820173727236789,1.2807419909137954e-17,-0.406513316480649,0.22383795178866905,1.47491990928545e-16,0,70,255.0,255.0,255.0
304,15.200000000000001,3.607392566582401,-10.269559189758942,-10.0,-1.823685636362701,-0.8706483373406471,1.6273396540169094e-17,-0.4065991876811118,0.230923463532595,-8.852925687301574e-18,0,70,255.0,255.0,255.0
305,15.25,3.5157,-10.3128,-10.0,-1.8440177425267674,-0.8589250263704195,1.1922127340408085e-17,-0.40668505888156936,0.23800897527651887,-1.6519784230314252e-16,0,70,255.0,255.0,255.0
306,15.3,3.422989263299832,-10.355446392290505,-10.0,-1.8644415904844107,-0.8468837090712912,4.70954757894904e-18,-0.41026885942414393,0.24364371668860682,-1.2330534815521522e-16,0,70,255.0,255.0,255.0
307,15.350000000000001,3.3292528544511035,-10.397483675289285,-10.0,-1.8850446284691824,-0.8345606547015584,-4.084074751136104e-19,-0.4138526599667185,0.24927845810069477,-8.141285400728791e-17,0,70,255.0,255.0,255.0
308,15.4,3.234481813952462,-10.438897762142815,-10.0,-1.905826856481082,-0.8219558632612217,-3.431737821779797e-18,-0.41743646050929295,0.2549131995127825,-3.9520359859362083e-17,0,70,255.0,255.0,255.0
309,15.450000000000001,3.138667182302544,-10.479674565997566,-10.0,-1.9267882745201117,-0.8090693347502802,-4.360443461049734e-18,-0.4210202610518675,0.26054794092487044,2.372134288565213e-18,0,70,255.0,255.0,255.0
310,15.5,3.0418,-10.5198,-10.0,-1.9479288825862688,-0.7959010691687348,-3.1945243929233547e-18,-0.4246040615944455,0.2661826823369582,4.4264628436490993e-17,0,70,255.0,255.0,255.0
311,15.55,2.943872409574263,-10.559260268637763,-10.0,-1.9691825588317224,-0.7824685469866931,-1.261919470495344e-18,-0.4255429882236829,0.27111820494470384,3.303956846062834e-17,0,70,255.0,255.0,255.0
312,15.600000000000001,2.844880961677967,-10.598042741763164,-10.0,-1.9904831814086377,-0.7687892486742641,1.0943245313952608e-19,-0.42648191485292025,0.27605372755244945,2.181450848476569e-17,0,70,255.0,255.0,255.0
313,15.65,2.744823308994542,-10.636135080569684,-10.0,-2.0118307503170145,-0.7548631742314482,9.195313779812374e-19,-0.4274208414821576,0.28098925016019494,1.0589448508903434e-17,0,70,255.0,255.0,255.0
314,15.700000000000001,2.643697104207409,-10.673524946250803,-10.0,-2.0332252655568532,-0.7406903236582447,1.1683773040298467e-18,-0.428359768111395,0.2859247727679406,-6.35611466959217e-19,0,70,255.0,255.0,255.0
315,15.75,2.5415,-10.7102,-10.0,-2.0546667271281533,-0.7262706969546543,8.559702312853354e-19,-0.42929869474063054,0.29086029537568425,-1.186067144282147e-17,0,70,255.0,255.0,255.0
316,15.8,2.4382290984031068,-10.74614533315845,-10.0,-2.0761881741886974,-0.7114501029819462,3.3813030303233744e-19,-0.43155918768111834,0.30196346353263265,-8.852925687298156e-18,0,70,255.0,255.0,255.0
317,15.850000000000001,2.3338792988370107,-10.781335757658065,-10.0,-2.097822645896266,-0.6960743506013906,-2.932233744449268e-20,-0.43381968062160614,0.31306663168958104,-5.84517993177484e-18,0,70,255.0,255.0,255.0
318,15.9,2.2284449500693637,-10.815743515578456,-10.0,-2.1195701422508577,-0.6801434398129882,-2.4638769014514993e-19,-0.4360801735620939,0.324169799846529,-2.8374341762516318e-18,0,70,255.0,255.0,255.0
319,15.950000000000001,2.121920400867808,-10.849340848999233,-10.0,-2.141430663252475,-0.6636573706167378,-3.130657550696495e-19,-0.4383406665025817,0.3352729680034774,1.7031157927168437e-19,0,70,255.0,255.0,255.0
320,16.0,2.0143,-10.8821,-10.0,-2.1634042089011163,-0.6466161430126406,-2.2935653221798693e-19,-0.4406011594430801,0.34637613616042895,3.178057334794892e-18,0,70,255.0,255.0,255.0
321,16.05,1.9055831968133017,-10.913988798728447,-10.0,-2.1851847444134904,-0.628755041085509,-9.06017416340056e-20,-0.4306202610518744,0.3680679409248265,2.3721342885642824e-18,0,70,255.0,255.0,255.0
322,16.1,1.7957898429739738,-10.944957427604582,-10.0,-2.2064662350063045,-0.6098093489201575,7.856896638444673e-21,-0.42063936266066876,0.389759745689224,1.5662112423336732e-18,0,70,255.0,255.0,255.0
323,16.150000000000002,1.6849448907279942,-10.974951657116492,-10.0,-2.227248680679558,-0.589779066516586,6.601938259936399e-20,-0.41065846426946306,0.4114515504536215,7.60288196103064e-19,0,70,255.0,255.0,255.0
324,16.2,1.5730732923213488,-11.003917257752269,-10.0,-2.24753208143325,-0.5686641938747962,8.38857162487523e-20,-0.4006775658782581,0.43314335521801745,-4.5634850127488073e-20,0,70,255.0,255.0,255.0
325,16.25,1.4602,-11.0318,-10.0,-2.267316437267383,-0.5464647309947851,6.145589758661238e-20,-0.3906966674870489,0.4548351599824132,-8.515578963580975e-19,0,70,255.0,255.0,255.0
326,16.3,1.3463493143436769,-11.058553871927767,-10.0,-2.286640848157344,-0.5236737326760257,2.427666350368503e-20,-0.38227976811137965,0.4568047727679494,-6.356114669589753e-19,0,70,255.0,255.0,255.0
327,16.35,1.2315429292670754,-11.084165731923617,-10.0,-2.3055444140785215,-0.5007842537179895,-2.1052491092860563e-21,-0.3738628687357104,0.45877438555348554,-4.1966503755985326e-19,0,70,255.0,255.0,255.0
328,16.400000000000002,1.1158018870186346,-11.10863065595558,-10.0,-2.3240271350309154,-0.4777962941206765,-1.76898402523009e-20,-0.3654459693600412,0.46074399833902174,-2.0371860816073118e-19,0,70,255.0,255.0,255.0
329,16.45,0.9991472298468019,-11.131943719991696,-10.0,-2.3420890110145245,-0.4547098538840883,-2.2477109925359512e-20,-0.35702906998437256,0.4627136111245578,1.2227821238375682e-20,0,70,255.0,255.0,255.0
330,16.5,0.8816,-11.1541,-10.0,-2.359730042029352,-0.4315249330082217,-1.6467058128462572e-20,-0.34861217060869976,0.4646832239100922,2.2817425063749795e-19,0,70,255.0,255.0,255.0
331,16.55,0.7631811458119807,-11.175092513560484,-10.0,-2.376955862957135,-0.40811802821038157,-6.504912380734514e-21,-0.3404206665025916,0.4715929680035017,1.703115792716187e-19,0,70,255.0,255.0,255.0
332,16.6,0.6439112399577049,-11.194906044700963,-10.0,-2.3937721086796113,-0.38436563620787084,5.640997986995385e-22,-0.3322291623964835,0.4785027120969112,1.1244890790573943e-19,0,70,255.0,255.0,255.0
333,16.650000000000002,0.523810761197438,-11.213523319061194,-10.0,-2.4101787791967832,-0.36026775700068975,4.7399784098395894e-21,-0.32403765829037534,0.48541245619032064,5.45862365398602e-20,0,70,255.0,255.0,255.0
334,16.7,0.40290018829145363,-11.23092706228095,-10.0,-2.4261758745086484,-0.33582439058883984,6.022723452685654e-21,-0.31584615418426776,0.49232220028372964,-3.2764348260149443e-21,0,70,255.0,255.0,255.0
335,16.75,0.2812,-11.2471,-10.0,-2.441763394615209,-0.31103553697231784,4.4123349272379004e-21,-0.30765465007814186,0.4992319443771369,-6.113910619189416e-20,0,70,255.0,255.0,255.0
336,16.8,0.15873090240839005,-11.262024873830294,-10.0,-2.4569277000141185,-0.28590215448243944,1.7429860192530245e-21,-0.29891756587825274,0.5061033552179832,-4.5634850127499364e-20,0,70,255.0,255.0,255.0
337,16.85,0.03551451090208451,-11.275684489272543,-10.0,-2.4716551512030347,-0.2604252014505188,-1.511500855121007e-22,-0.2901804816783636,0.5129747660588296,-3.013059406310457e-20,0,70,255.0,255.0,255.0
338,16.900000000000002,-0.08842733180841697,-11.288061667799646,-10.0,-2.4859457481819556,-0.2346046778765558,-1.2700733870574756e-21,-0.28144339747847447,0.5198461768996759,-1.4626337998709787e-20,0,70,255.0,255.0,255.0
339,16.95,-0.21307278301260577,-11.299139230884498,-10.0,-2.4997994909508816,-0.20844058376055233,-1.6137838853831042e-21,-0.2727063132785859,0.5267175877405219,8.779180656839026e-22,0,70,255.0,255.0,255.0
340,17.0,-0.3384,-11.3089,-10.0,-2.5132163795098137,-0.18193291910250473,-1.1822815804890318e-21,-0.2639692290786968,0.5335889985813684,1.638217413007869e-20,0,70,255.0,255.0,255.0
341,17.05,-0.46438715544555154,-11.317327191118338,-10.0,-2.5261973369863906,-0.15510535385985638,-4.670316962775852e-22,-0.255269069984375,0.5395136111245494,1.222782123837877e-20,0,70,255.0,255.0,255.0
342,17.1,-0.591012483566064,-11.324405598208866,-10.0,-2.5387432865082515,-0.127981557990049,4.0500543348862514e-23,-0.24656891089005317,0.5454382236677304,8.07346834667885e-21,0,70,255.0,255.0,255.0
343,17.150000000000002,-0.7182542339638017,-11.330120409740225,-10.0,-2.550854228075396,-0.10056153149308258,3.403151383903113e-22,-0.23786875179573136,0.5513628362109113,3.919115454978929e-21,0,70,255.0,255.0,255.0
344,17.2,-0.8460906562410198,-11.334456814181056,-10.0,-2.562530161687824,-0.07284527436895909,4.324120888467617e-22,-0.22916859270141016,0.5572874487540919,-2.352374367206962e-22,0,70,255.0,255.0,255.0
345,17.25,-0.9745,-11.3374,-10.0,-2.573771087345537,-0.04483278661767456,3.1679139471822743e-22,-0.2204684336070919,0.5632120612972731,-4.3895903284206145e-21,0,70,255.0,255.0,255.0
346,17.3,-1.1034606806261946,-11.338935161696352,-10.0,-2.584586952040321,-0.016524430078148467,1.2514076585731627e-22,-0.21216615418426046,0.5691222002837544,-3.2764348260157215e-21,0,70,255.0,255.0,255.0
347,17.35,-1.23295177663785,-11.339047517891993,-10.0,-2.5949877027639636,0.012079433410701692,-1.0852087883349438e-23,-0.20386387476142906,0.5750323392702358,-2.163279323610829e-21,0,70,255.0,255.0,255.0
348,17.400000000000002,-1.362952532336409,-11.33772229323946,-10.0,-2.604973339516464,0.04097880384887593,-9.118716650376959e-23,-0.19556159533859763,0.5809424782567171,-1.0501238212059359e-21,0,70,255.0,255.0,255.0
349,17.45,-1.4934421920233054,-11.334944712391284,-10.0,-2.6145438622978223,0.07017368123637215,-1.1586447000394476e-22,-0.1872593159157668,0.5868526172431979,6.303168119887772e-23,0,70,255.0,255.0,255.0
350,17.5,-1.6244,-11.3307,-10.0,-2.62369927110804,0.09966406557319446,-8.488399838387807e-23,-0.17895703649291406,0.5927627562296793,1.1761871836037703e-21,0,70,255.0,255.0,255.0
351,17.55,-1.7558053220496808,-11.324972962096258,-10.0,-2.632446854852327,0.12947507417245077,-3.353136715168012e-23,-0.17094631327857063,0.5996775877405567,8.779180656841187e-22,0,70,255.0,255.0,255.0
352,17.6,-1.8876380098825578,-11.317746730223162,-10.0,-2.640793902435897,0.15963182434725098,2.907808184535033e-24,-0.16293559006422717,0.6065924192514339,5.79648947764467e-22,0,70,255.0,255.0,255.0
353,17.650000000000002,-2.0198780366905957,-11.30900401730194,-10.0,-2.64874041385875,0.19013431609759504,2.4433527624767393e-23,-0.1549248668498837,0.6135072507623113,2.813798298448153e-22,0,70,255.0,255.0,255.0
354,17.7,-2.152505375665749,-11.29872753625381,-10.0,-2.656286389120885,0.22098254942348078,3.104579116901704e-23,-0.14691414363554084,0.6204220822731881,-1.6889288074815246e-23,0,70,255.0,255.0,255.0
355,17.75,-2.2855,-11.2869,-10.0,-2.663431828222304,0.25217652432491255,2.2744598817284855e-23,-0.13890342042119386,0.627336913784065,-3.151584059944669e-22,0,70,255.0,255.0,255.0
356,17.8,-2.4188412311750933,-11.273504989918619,-10.0,-2.67013762855037,0.2836641333883651,8.984702749404164e-24,-0.12932859270142089,0.6321674487540198,-2.352374367207529e-22,0,70,255.0,255.0,255.0
357,17.85,-2.5525057838319407,-11.258529561215354,-10.0,-2.6763646874924465,0.3153932692003154,-7.791448547907711e-25,-0.11975376498164793,0.6369979837239744,-1.5531646744703895e-22,0,70,255.0,255.0,255.0
358,17.900000000000002,-2.686469720901242,-11.241961637552778,-10.0,-2.6821130050485347,0.34736393176076347,-6.546943995299949e-24,-0.11017893726187497,0.6418285186939292,-7.539549817332499e-23,0,70,255.0,255.0,255.0
359,17.95,-2.820709105313689,-11.223789142593471,-10.0,-2.6873825812186336,0.379576121069707,-8.318694672123392e-24,-0.1006041095421027,0.6466590536638835,4.525471100383308e-24,0,70,255.0,255.0,255.0
360,18.0,-2.9552,-11.204,-10.0,-2.6921734160027446,0.4120298371271505,-6.094396885261346e-24,-0.09102928182232262,0.6514895886338379,8.444644037409732e-23,0,70,255.0,255.0,255.0
361,18.05,-3.089919353249956,-11.182580678229263,-10.0,-2.696538630946197,0.4448123922740777,-2.407443845936533e-24,-0.08357931591575454,0.6598126172432324,6.303168119889309e-23,0,70,255.0,255.0,255.0
362,18.1,-3.224847654789701,-11.15951182491542,-10.0,-2.7005313475943202,0.4780110988514747,2.0877123462805274e-25,-0.07612935000918647,0.6681356458526269,4.1616922023688855e-23,0,70,255.0,255.0,255.0
363,18.150000000000002,-3.35996627970447,-11.13477263248694,-10.0,-2.7041515659471154,0.5116259568593414,1.7542483564324105e-24,-0.0686793841026184,0.6764586744620213,2.0202162848484623e-23,0,70,255.0,255.0,255.0
364,18.2,-3.495256603079485,-11.10834229337231,-10.0,-2.707399286004582,0.5456569662976753,2.2289875194765475e-24,-0.06122941819605085,0.6847817030714152,-1.2125963267180921e-24,0,70,255.0,255.0,255.0
365,18.25,-3.6307,-11.0802,-10.0,-2.71027450776672,0.5801041271664815,1.632988723760527e-24,-0.053779452289479224,0.6931047316808066,-2.262735550192233e-23,0,70,255.0,255.0,255.0
366,18.3,-3.766277355825094,-11.050326697164328,-10.0,-2.7127478476648452,0.6148622975153325,6.4507263434197015e-25,-0.04515414363553335,0.6972220822732124,-1.688928807481938e-23,0,70,255.0,255.0,255.0
367,18.35,-3.9019675970092766,-11.018710339122972,-10.0,-2.7147899221302736,0.6498263353938037,-5.594008372143522e-26,-0.036528834981587474,0.7013394328656181,-1.1151220647716432e-23,0,70,255.0,255.0,255.0
368,18.400000000000002,-4.037749160280914,-10.985340632499453,-10.0,-2.716400731163004,0.6849962408018954,-4.700494304296888e-25,-0.027903526327641603,0.7054567834580239,-5.413153220613483e-24,0,70,255.0,255.0,255.0
369,18.45,-4.173600482368359,-10.95020728391729,-10.0,-2.7175802747630375,0.7203720137396046,-5.972554057827919e-25,-0.019278217673696342,0.7095741340504292,3.249142064890574e-25,0,70,255.0,255.0,255.0
370,18.5,-4.3095,-10.9133,-10.0,-2.7183285529303736,0.7559536542069366,-4.375580097807629e-25,-0.010652909019743362,0.7136914846428306,6.062981633592009e-24,0,70,255.0,255.0,255.0
371,18.55,-4.44542562344968,-10.874606933113423,-10.0,-2.7186139783944197,0.7918344176646039,-1.7284669143134785e-25,-0.00076410954210843,0.7215390536638452,4.525471100384444e-24,0,70,255.0,255.0,255.0
372,18.6,-4.581353157173215,-10.834110018592687,-10.0,-2.718404963884584,0.8281075595733222,1.4989100257687882e-26,0.009124689935526502,0.7293866226848597,2.987960567176879e-24,0,70,255.0,255.0,255.0
373,18.650000000000002,-4.7172578791719095,-10.791789637515238,-10.0,-2.717701509400867,0.864773079933091,1.2594936528634427e-25,0.019013489413161434,0.7372341917058742,1.450450033969314e-24,0,70,255.0,255.0,255.0
374,18.7,-4.853115067447064,-10.74762617095853,-10.0,-2.7165036149432686,0.901830978743908,1.6003410365462167e-25,0.028902288890795665,0.7450817607268881,-8.706049923814194e-26,0,70,255.0,255.0,255.0
375,18.75,-4.9889,-10.7016,-10.0,-2.7148112805117877,0.9392812560057783,1.172433153625247e-25,0.03879108836843059,0.7529293297479027,-1.6245710324457077e-24,0,70,255.0,255.0,255.0
376,18.8,-5.124589750376201,-10.653692770381973,-10.0,-2.712732238757478,0.9770480318262618,4.6314131383421093e-26,0.044370581803952626,0.7577417030714158,-1.2125963267183957e-24,0,70,255.0,255.0,255.0
377,18.85,-5.2601685742978885,-10.603891186506269,-10.0,-2.7103742223313922,1.0150554263129208,-4.016317309316616e-27,0.04995007523947466,0.7625540763949288,-8.006216209910839e-25,0,70,255.0,255.0,255.0
378,18.900000000000002,-5.395622523031479,-10.552183217439577,-10.0,-2.7077372312335304,1.0533034394657559,-3.3748030715688397e-26,0.05552956867499669,0.7673664497184419,-3.88646915263772e-25,0,70,255.0,255.0,255.0
379,18.95,-5.5309376478433725,-10.498556832248594,-10.0,-2.7048212654638926,1.0917920712847633,-4.288100883569447e-26,0.06110906211051833,0.7721788230419546,2.332779046351054e-26,0,70,255.0,255.0,255.0
380,19.0,-5.6661,-10.443,-10.0,-2.701626325022479,1.1305213217699497,-3.1415251669335936e-26,0.06668855554603326,0.7769911963654756,4.353024961908227e-25,0,70,255.0,255.0,255.0
381,19.05,-5.801092175045535,-10.385498785358676,-10.0,-2.69794506657567,1.1696054550303476,-1.2409834102336598e-26,0.08056178232631003,0.7863741340504213,3.2491420648913997e-25,0,70,255.0,255.0,255.0
382,19.1,-5.935882945635254,-10.326031635382225,-10.0,-2.6935701467898476,1.2091587351749928,1.0761689795785265e-27,0.09443500910658681,0.7957570717353671,2.1452591678745732e-25,0,70,255.0,255.0,255.0
383,19.150000000000002,-6.070437628702207,-10.264575092726437,-10.0,-2.6885015656650113,1.2491811622038855,9.04275757640944e-27,0.10830823588686359,0.8051400094203128,1.0413762708577467e-25,0,70,255.0,255.0,255.0
384,19.200000000000003,-6.204721541179442,-10.201105700047098,-10.0,-2.682739323201161,1.2896727361170253,1.1489931688156147e-26,0.12218146266714038,0.8145229471052586,-6.250662615908021e-27,0,70,255.0,255.0,255.0
385,19.25,-6.3387,-10.1356,-10.0,-2.6762834193982976,1.3306334569144098,8.417691314819042e-27,0.13605468944740906,0.823905884790209,-1.1663895231758277e-25,0,70,255.0,255.0,255.0
386,19.3,-6.472335949441673,-10.068037688183317,-10.0,-2.6689914949398426,1.3718741480523382,3.3252050259252974e-27,0.15562228889078922,0.8257217607269045,-8.70604992381641e-26,0,70,255.0,255.0,255.0
387,19.35,-6.605582843161119,-9.998411071964817,-10.0,-2.6607211905092187,1.4132056329871014,-2.883586089974914e-28,0.1751898883341694,0.8275376366636,-5.748204615874541e-26,0,70,255.0,255.0,255.0
388,19.400000000000002,-6.73839176215973,-9.926715611654657,-10.0,-2.6514725061064253,1.4546279117186993,-2.4229995899493244e-27,0.19475748777754956,0.8293535126002956,-2.7903593079326724e-26,0,70,255.0,255.0,255.0
389,19.450000000000003,-6.870713787438896,-9.852946767563,-10.0,-2.641245441731463,1.496140984247132,-3.0787179169302043e-27,0.21432508722092974,0.831169388536991,1.6748600000919507e-27,0,70,255.0,255.0,255.0
390,19.5,-7.0025,-9.7771,-10.0,-2.630039997384333,1.5377448505723965,-2.255513589940238e-27,0.2338926866643085,0.8329852644736846,3.1253313079508537e-26,0,70,255.0,255.0,255.0
391,19.55,-7.1337048271877865,-9.699175261908051,-10.0,-2.618056953664962,1.5791699527602887,-8.90986001364594e-28,0.24542906211053095,0.8240188230419732,2.3327790463516446e-26,0,70,255.0,255.0,255.0
392,19.6,-7.264296081720295,-9.619190476758494,-10.0,-2.6054970911732793,1.6201467328765948,7.726545641143983e-29,0.2569654375567534,0.8150523816102617,1.5402267847524354e-26,0,70,255.0,255.0,255.0
393,19.650000000000002,-7.394244922658913,-9.537168060654915,-10.0,-2.592360409909286,1.660675190921316,6.492407833878633e-28,0.2685018130029758,0.8060859401785503,7.476745231532263e-27,0,70,255.0,255.0,255.0
394,19.700000000000003,-7.523522509065022,-9.45313042970089,-10.0,-2.5786469098729814,1.7007553268944513,8.24939979564677e-28,0.2800381884491983,0.7971194987468389,-4.487773844598276e-28,0,70,255.0,255.0,255.0
395,19.75,-7.6521,-9.3671,-10.0,-2.564356591064367,1.740387140795998,6.043630449419091e-28,0.2915745638954341,0.7881530573151245,-8.374300000451353e-27,0,70,255.0,255.0,255.0
396,19.8,-7.779948741807196,-9.279098064184474,-10.0,-2.549500690400303,1.7796380409065085,2.387389795330782e-28,0.30266146266713123,0.781882947105268,-6.250662615901674e-27,0,70,255.0,255.0,255.0
397,19.85,-7.907040829957724,-9.189141421001189,-10.0,-2.534090444797653,1.818575435506526,-2.07032166482672e-29,0.31374836143882834,0.7756128368954114,-4.127025231351995e-27,0,70,255.0,255.0,255.0
398,19.900000000000002,-8.033348547204655,-9.097245745725662,-10.0,-2.5181258542564193,1.8571993245960505,-1.7396354360212725e-28,0.32483526021052544,0.7693427266855548,-2.0033878468023164e-27,0,70,255.0,255.0,255.0
399,19.950000000000003,-8.15884417630106,-9.003426713633422,-10.0,-2.5016069187766004,1.8955097081750825,-2.210420013285017e-28,0.33592215898222255,0.7630726164756982,1.2024953774736263e-28,0,70,255.0,255.0,255.0
400,20.0,-8.2835,-8.9077,-10.0,-2.4845336383581973,1.933506586243619,-1.6193858982739885e-28,0.34700905775392243,0.7568025062658315,2.243886922296891e-27,0,70,255.0,255.0,255.0
401,20.05,-8.40728740558344,-8.81008128135404,-10.0,-2.4668522847338266,1.9711898836136894,-6.396991676771861e-29,0.3602450872209092,0.7505293885369688,1.674860000090263e-27,0,70,255.0,255.0,255.0
402,20.1,-8.53017419844883,-8.710586239236736,-10.0,-2.448509129636106,2.0085595250973167,5.547410181629804e-30,0.37348111668789596,0.7442562708081061,1.1058330778836346e-27,0,70,255.0,255.0,255.0
403,20.150000000000002,-8.652127288522498,-8.609230556442412,-10.0,-2.429504173065036,2.045615510694501,4.6613391020646415e-29,0.3867171461548827,0.7379831530792434,5.368061556770066e-28,0,70,255.0,255.0,255.0
404,20.200000000000003,-8.773113585730782,-8.50602991576539,-10.0,-2.4098374150206174,2.082357840405242,5.922802574933121e-29,0.39995317562186944,0.7317100353503807,-3.222076652962182e-29,0,70,255.0,255.0,255.0
405,20.25,-8.8931,-8.401,-10.0,-2.3895088555028505,2.1187865142295377,4.3391314367686346e-29,0.4131892050888446,0.7254369176215185,-6.012476887362094e-28,0,70,255.0,255.0,255.0
406,20.3,-9.01205443585905,-8.29415681039936,-10.0,-2.368578170664399,2.1548824246387466,1.7140687537796335e-29,0.42403818844922314,0.7183994987468189,-4.4877738445937605e-28,0,70,255.0,255.0,255.0
407,20.35,-9.129948776246977,-8.18551762205185,-10.0,-2.3471050366579274,2.190626464104221,-1.4864240782519032e-30,0.4348871718096017,0.7113620798721191,-2.9630708018254277e-28,0,70,255.0,255.0,255.0
408,20.400000000000002,-9.246755898705379,-8.075100028504663,-10.0,-2.325089453483438,2.2260186326259594,-1.2490020480458358e-29,0.4457361551699802,0.7043246609974194,-1.4383677590570948e-28,0,70,255.0,255.0,255.0
409,20.450000000000003,-9.362448680775856,-7.962921623304981,-10.0,-2.302531421140929,2.2610589302039634,-1.5870101668823063e-29,0.45658513853035876,0.6972872421227198,8.633528371123845e-30,0,70,255.0,255.0,255.0
410,20.5,-9.477,-7.849,-10.0,-2.279430939630403,2.29574735683823,-1.1626667643346526e-29,0.4674341218907365,0.6902498232480134,1.6110383264794628e-28,0,70,255.0,255.0,255.0
411,20.55,-9.590382050980372,-7.733352277048516,-10.0,-2.255747032608578,2.3301124178313235,-4.592833383466739e-30,0.4799221589822503,0.6843526164757043,1.2024953774724124e-28,0,70,255.0,255.0,255.0
412,20.6,-9.702564296563285,-7.615993672555842,-10.0,-2.231438723732177,2.3641826184858012,3.982861313777693e-31,0.4924101960737641,0.6784554097033952,7.939524284653622e-29,0,70,255.0,255.0,255.0
413,20.650000000000002,-9.813515516656015,-7.496938929538909,-10.0,-2.206506013001201,2.3979579588016637,3.346690901186996e-30,0.5048982331652778,0.6725582029310861,3.854094794583121e-29,0,70,255.0,255.0,255.0
414,20.700000000000003,-9.923204491165832,-7.376202791014649,-10.0,-2.1809489004156486,2.431438438778911,4.252380925960945e-30,0.5173862702567916,0.666660996158777,-2.31334695487383e-30,0,70,255.0,255.0,255.0
415,20.75,-10.0316,-7.2538,-10.0,-2.1547673859755228,2.4646240584175407,3.1153562056997665e-30,0.5298743073483188,0.6607637893864649,-4.3167641855575953e-29,0,70,255.0,255.0,255.0
416,20.8,-10.138670960219478,-7.129746081406569,-10.0,-2.127969698901269,2.4974679040359624,1.230645996070613e-30,0.5420331756218099,0.6529900353503918,-3.222076652958911e-29,0,70,255.0,255.0,255.0
417,20.85,-10.244386837499903,-7.004059687724763,-10.0,-2.100564068413341,2.529923061952581,-1.0672044725919017e-31,0.554192043895301,0.6452162813143187,-2.127389120360226e-29,0,70,255.0,255.0,255.0
418,20.900000000000002,-10.348717234670588,-6.876760253339672,-10.0,-2.0725504945117383,2.561989532167395,-8.967431242896428e-31,0.5663509121687922,0.6374425272782457,-1.0327015877615416e-29,0,70,255.0,255.0,255.0
419,20.950000000000003,-10.45163175456085,-6.747867212636384,-10.0,-2.0439289771964613,2.593667314680406,-1.1394220350207459e-30,0.5785097804422833,0.6296687732421726,6.198594483714352e-31,0,70,255.0,255.0,255.0
420,21.0,-10.5531,-6.6174,-10.0,-2.0146995164675117,2.6249564094916114,-8.34757179452539e-31,0.5906686487157629,0.6218950192061001,1.1566734774357507e-29,0,70,255.0,255.0,255.0
421,21.05,-10.653091708141728,-6.4853769973251945,-10.0,-1.9848701717863575,2.655919966024832,-3.2975060081571553e-31,0.6025051385303885,0.6166472421227013,8.633528371115149e-30,0,70,255.0,255.0,255.0
422,21.1,-10.751577153437127,-6.351812376545082,-10.0,-1.954449002614472,2.6866211337038823,2.8595657658987994e-32,0.6143416283450139,0.6113994650393023,5.700321967872789e-30,0,70,255.0,255.0,255.0
423,21.150000000000002,-10.848526744661665,-6.216719257102373,-10.0,-1.9234360089518552,2.717059912528763,2.402815959715717e-31,0.6261781181596395,0.6061516879559035,2.767115564630431e-30,0,70,255.0,255.0,255.0
424,21.200000000000003,-10.943910890590802,-6.080110758439772,-10.0,-1.8918311907985073,2.7472363024994735,3.053072141220349e-31,0.6380146079742651,0.6009039108725045,-1.6609083861192927e-31,0,70,255.0,255.0,255.0
425,21.25,-11.0377,-5.942,-10.0,-1.8596345481544299,2.777150303616012,2.2367251211038956e-31,0.6498510977889023,0.5956561337890918,-3.099297241854078e-30,0,70,255.0,255.0,255.0
426,21.3,-11.129864607213625,-5.80240112929264,-10.0,-1.8268536139532867,2.8067402318647097,8.835640719224846e-32,0.6613862702568083,0.5879409961587853,-2.3133469548714897e-30,0,70,255.0,255.0,255.0
427,21.35,-11.220375748751607,-5.661332406094884,-10.0,-1.793495921128748,2.8359444032318915,-7.662183376762694e-33,0.6729214427247143,0.5802258585284787,-1.5273966678889019e-30,0,70,255.0,255.0,255.0
428,21.400000000000002,-11.309204586682778,-5.518813118250805,-10.0,-1.7595614696808144,2.8647628177175584,-6.438325959664389e-32,0.6844566151926204,0.5725107208981722,-7.4144638090631405e-31,0,70,255.0,255.0,255.0
429,21.450000000000003,-11.39632228307597,-5.374862553604482,-10.0,-1.725050259609485,2.8931954753217095,-8.180682146739511e-32,0.6959917876605264,0.5647955832678657,4.450390607627413e-32,0,70,255.0,255.0,255.0
430,21.5,-11.4817,-5.2295,-10.0,-1.689962290914763,2.9212423760443436,-5.99328689890194e-32,0.7075269601284404,0.5570804456375527,8.304541930588063e-31,0,70,255.0,255.0,255.0
431,21.55,-11.565308263003782,-5.082744085504231,-10.0,-1.6542593724004953,2.948943106516337,-2.3675027953278416e-32,0.7205897804422522,0.5509487732421688,6.198594483708127e-31,0,70,255.0,255.0,255.0
432,21.6,-11.647115051556456,-4.934610799075358,-10.0,-1.6179033128705367,2.9763372533685613,2.053075848062741e-33,0.733652600756064,0.544817100846785,4.092647036828191e-31,0,70,255.0,255.0,255.0
433,21.650000000000002,-11.727087708607243,-4.785115469894367,-10.0,-1.5808941123248876,3.0034248166010165,1.725144241500408e-32,0.7467154210698758,0.5386854284514013,1.9866995899482543e-31,0,70,255.0,255.0,255.0
434,21.700000000000003,-11.805193577105353,-4.634273427142248,-10.0,-1.543231770763548,3.030205796213702,2.1920071747545572e-32,0.7597782413836875,0.5325537560560175,-1.1924785693168127e-32,0,70,255.0,255.0,255.0
435,21.75,-11.8814,-4.4821,-10.0,-1.5049162881865208,3.0566801922066174,1.6058963845688024e-32,0.772841061697493,0.5264220836606235,-2.2251953038114675e-31,0,70,255.0,255.0,255.0
436,21.8,-11.955675140771255,-4.328610528690419,-10.0,-1.465996896444726,3.0828473420699454,6.343704620865206e-33,0.7839346079742687,0.5202639108724859,-1.6609083861176041e-31,0,70,255.0,255.0,255.0
437,21.85,-12.027990445022578,-4.1738203976036585,-10.0,-1.4265228273890926,3.1087065832938667,-5.501200154882534e-34,0.7950281542510446,0.5141057380843483,-1.0966214684237408e-31,0,70,255.0,255.0,255.0
438,21.900000000000002,-12.098318178888269,-4.017745002171685,-10.0,-1.3864940810196205,3.134257915878381,-4.6225100633723546e-33,0.8061217005278203,0.5079475652962107,-5.323345507298772e-32,0,70,255.0,255.0,255.0
439,21.950000000000003,-12.166630608502643,-3.860399737826472,-10.0,-1.3459106573363098,3.1595013398234886,-5.8734655227870984e-33,0.8172152468045961,0.5017893925080731,3.195236696398598e-33,0,70,255.0,255.0,255.0
440,22.0,-12.2329,-3.7018,-10.0,-1.304772556339163,3.1844368551291873,-4.3029863937327025e-33,0.8283087930813693,0.49563121971992885,5.962392846578093e-32,0,70,255.0,255.0,255.0
441,22.05,-12.297098373911199,-3.541961799734077,-10.0,-1.2630650418206146,3.2090275252038825,-1.6997905301824143e-33,0.8399917876605374,0.48799558326787096,4.4503906076229124e-32,0,70,255.0,255.0,255.0
442,22.1,-12.359196768353248,-3.380903610509984,-10.0,-1.2207733775731082,3.233236413455975,1.4740421389027327e-34,0.8516747822397054,0.48035994681581307,2.9383883686677326e-32,0,70,255.0,255.0,255.0
443,22.150000000000002,-12.419165975839697,-3.2186445214188515,-10.0,-1.1778975635966429,3.257063519885465,1.23859783848536e-33,0.8633577768188734,0.4727243103637552,1.4263861297125528e-32,0,70,255.0,255.0,255.0
444,22.200000000000003,-12.476976788884098,-3.0552036215518092,-10.0,-1.1344375998912195,3.2805088444923514,1.5737903436028462e-33,0.8750407713980415,0.4650886739116973,-8.561610924262754e-34,0,70,255.0,255.0,255.0
445,22.25,-12.5326,-2.8906,-10.0,-1.0903934864568408,3.3035723872766334,1.1529817292427892e-33,0.8867237659772069,0.45745303745963284,-1.597618348197699e-32,0,70,255.0,255.0,255.0
446,22.3,-12.586004963583951,-2.7248526723732596,-10.0,-1.045678936272817,3.3262585571145245,4.554574998644513e-34,0.9018582413837275,0.4499937560560105,-1.1924785693156126e-32,0,70,255.0,255.0,255.0
447,22.35,-12.637155281564445,-2.557980360356379,-10.0,-1.0002076623184668,3.3485717628822353,-3.949684007284044e-35,0.916992716790248,0.44253447465238815,-7.873387904335262e-33,0,70,255.0,255.0,255.0
448,22.400000000000002,-12.68601311775296,-2.3900017121528676,-10.0,-0.9539796645937906,3.3705120045797643,-3.3188129056908577e-34,0.9321271921967685,0.4350751932487658,-3.8219901155143984e-33,0,70,255.0,255.0,255.0
449,22.450000000000003,-12.732540635960987,-2.220935375966234,-10.0,-0.9069949430987885,3.392079282207112,-4.21695851624286e-34,0.947261667603289,0.42761591184514347,2.2940767330646536e-34,0,70,255.0,255.0,255.0
450,22.5,-12.7767,-2.0508,-10.0,-0.8592534978334638,3.4132735957642777,-3.089405232384547e-34,0.962396143009812,0.42015663044152873,4.28080546212704e-33,0,70,255.0,255.0,255.0
451,22.55,-12.818456171752999,-1.879622710772871,-10.0,-0.8109232130881042,3.433586246338018,-1.2203946927539145e-34,0.9708152468045446,0.39234939250808226,3.195236696395383e-33,0,70,255.0,255.0,255.0
452,22.6,-12.857785305388981,-1.7074645480644715,-10.0,-0.762171973153008,3.4525085350150864,1.0583146401088161e-35,0.9792343505992771,0.36454215457463585,2.109667930663726e-33,0,70,255.0,255.0,255.0
453,22.650000000000002,-12.89466635314847,-1.5343950299696352,-10.0,-0.7129997780281752,3.4700404617954823,8.892732379098415e-35,0.9876534543940096,0.3367349166411894,1.0240991649320695e-33,0,70,255.0,255.0,255.0
454,22.700000000000003,-12.929078267271972,-1.3604836745831963,-10.0,-0.6634066277136056,3.486182026679206,1.1299306289429657e-34,0.9960725581887422,0.3089276787077429,-6.146960079958742e-35,0,70,255.0,255.0,255.0
455,22.75,-12.961,-1.1858,-10.0,-0.6133925222093031,3.500933229666256,8.278036371102938e-35,1.004491661983475,0.28112044077429843,-1.1470383665311674e-33,0,70,255.0,255.0,255.0
456,22.8,-12.990415149404065,-1.0104068845352427,-10.0,-0.5632362113747642,3.514692457533406,3.2700377237114384e-35,1.0017607713980514,0.2692486739116893,-8.561610924254039e-34,0,70,255.0,255.0,255.0
457,22.85,-13.017325896879631,-0.8343406473857066,-10.0,-0.5132164450694966,3.5278580970574254,-2.8357455315122235e-36,0.9990298808126277,0.2573769070490801,-5.6528381831964025e-34,0,70,255.0,255.0,255.0
458,22.900000000000002,-13.041739069653168,-0.6576309679685475,-10.0,-0.46333322329349996,3.5404301482383143,-2.3828004594850445e-35,0.9962989902272041,0.245505140186471,-2.744065442138768e-34,0,70,255.0,255.0,255.0
459,22.950000000000003,-13.063661494951138,-0.4803075257009222,-10.0,-0.4135865460467747,3.552408611076073,-3.027639995290028e-35,0.9935680996417805,0.23363337332386183,1.64707298918869e-35,0,70,255.0,255.0,255.0
460,23.0,-13.0831,-0.3024,-10.0,-0.36397641332932407,3.5637934855707,-2.2180931605662825e-35,0.9908372090563562,0.22176160646123932,3.0734800399762973e-34,0,70,255.0,255.0,255.0
461,23.05,-13.10006083063075,-0.1239401510861426,-10.0,-0.31446794141283213,3.5744599235283596,-8.762039673066083e-36,0.989501667603293,0.20489591184513548,2.2940767330623234e-34,0,70,255.0,255.0,255.0
462,23.1,-13.114547907092494,0.05503193760732764,-10.0,-0.26502624656899343,3.584283076755214,7.598357249607344e-37,0.9881661261502296,0.18803021722903163,1.5146734261483497e-34,0,70,255.0,255.0,255.0
463,23.150000000000002,-13.12656456823886,0.2344741018438704,-10.0,-0.21565132879780777,3.593262945251263,6.38469458841763e-36,0.9868305846971663,0.17116452261292778,7.35270119234376e-35,0,70,255.0,255.0,255.0
464,23.200000000000003,-13.136114152923486,0.4143441773869457,-10.0,-0.16634318809927534,3.601399529016507,8.112536917304596e-36,0.9854950432441031,0.15429882799682393,-4.413318767959791e-36,0,70,255.0,255.0,255.0
465,23.25,-13.1432,0.5946,-10.0,-0.11710182447339959,3.608692828050945,5.943362711621936e-36,0.9841595017910396,0.13743313338067864,-8.235364945935162e-35,0,70,255.0,255.0,255.0
466,23.3,-13.147824728072932,0.7752002888798286,-10.0,-0.06788402297390451,3.6151958483531557,2.347781455149953e-36,0.984552558188735,0.12268767870773353,-6.146960079952565e-35,0,70,255.0,255.0,255.0
467,23.35,-13.149988074750393,0.9561072969564266,-10.0,-0.018646568654524697,3.620961595921719,-2.035973683307161e-37,0.9849456145864304,0.10794222403478843,-4.0585552139699675e-35,0,70,255.0,255.0,255.0
468,23.400000000000002,-13.149689057391386,1.1372841605931114,-10.0,0.030610538484739897,3.625990070756634,-1.7107737588200706e-36,0.9853386709841258,0.0931967693618433,-1.9701503479873708e-35,0,70,255.0,255.0,255.0
469,23.450000000000003,-13.14692669335492,1.318694016153201,-10.0,0.07988729844388927,3.630281272857903,-2.1737477163181138e-36,0.985731727381821,0.0784513146888982,1.182545179952274e-36,0,70,255.0,255.0,255.0
470,23.5,-13.1417,1.5003,-10.0,0.1291837112229199,3.633835202225524,-1.59251924082492e-36,0.9861247837795164,0.06370586001595768,2.2066593839776768e-35,0,70,255.0,255.0,255.0
471,23.55,-13.13400905707752,1.6820645955668436,-10.0,0.1784360333084536,3.6366126830590195,-6.29086147533731e-37,0.9839680996418027,0.04739337332386787,1.6470729891870243e-35,0,70,255.0,255.0,255.0
472,23.6,-13.123858193905937,1.863947674566997,-10.0,0.22758052118710156,3.6385745395579105,5.455374836212772e-38,0.981811415504089,0.031080886631778062,1.0874865943963718e-35,0,70,255.0,255.0,255.0
473,23.650000000000002,-13.111252802195592,2.0459084557837297,-10.0,0.2766171748588639,3.6397207717221973,4.584004468626563e-37,0.9796547313663753,0.014768399939688252,5.2790019960571924e-36,0,70,255.0,255.0,255.0
474,23.700000000000003,-13.096198273656832,2.227906158000312,-10.0,0.3255459943237405,3.6400513795518794,5.8245394796785436e-37,0.9774980472286615,-0.0015440867524015578,-3.1686195184933174e-37,0,70,255.0,255.0,255.0
475,23.75,-13.0787,2.4099,-10.0,0.37436697958172793,3.6395663630469577,4.267142516777438e-37,0.975341363090946,-0.01785657344447955,-5.9127258997554596e-36,0,70,255.0,255.0,255.0
476,23.8,-13.058762243616986,2.5918501288528124,-10.0,0.42314788974010453,3.6383214194107656,1.6856313498497028e-37,0.9758950432440905,-0.031941172003191756,-4.4133187679553327e-36,0,70,255.0,255.0,255.0
477,23.85,-13.036384749625862,2.773720404775616,-10.0,0.47195648390613837,3.6363722458466383,-1.4617625117795792e-38,0.976448723397235,-0.04602577056190396,-2.9139116361552057e-36,0,70,255.0,255.0,255.0
478,23.900000000000002,-13.011566133826243,2.9554756162720155,-10.0,0.5207927620798295,3.6337188423545754,-1.228280286305543e-37,0.9770024035503795,-0.06011036912061616,-1.4145045043550787e-36,0,70,255.0,255.0,255.0
479,23.950000000000003,-12.98430501201775,3.137080551845613,-10.0,0.5696567242611776,3.630361208934577,-1.5606807555330573e-37,0.977556083703524,-0.07419496767932837,8.490262744504833e-38,0,70,255.0,255.0,255.0
480,24.0,-12.9546,3.3185,-10.0,0.6185483704501797,3.626299345586643,-1.1433776588605504e-37,0.9781097638566667,-0.08827956623805377,1.5843097592450684e-36,0,70,255.0,255.0,255.0
481,24.05,-12.922450768454533,3.499697289021923,-10.0,0.6674044077311415,3.621445639297914,-4.51663924061502e-38,0.9761317273817749,-0.10586868531110223,1.1825451799510857e-36,0,70,255.0,255.0,255.0
482,24.1,-12.887861207590614,3.6806299063305685,-10.0,0.7161615431883586,3.6157124770555322,3.916752109055216e-39,0.974153690906883,-0.12345780438415069,7.807806006571031e-37,0,70,255.0,255.0,255.0
483,24.150000000000002,-12.850836262499426,3.861253879128254,-10.0,0.7648197768218311,3.6090998588594987,3.2911667659561216e-38,0.9721756544319912,-0.14104692345719916,3.790160213631204e-37,0,70,255.0,255.0,255.0
484,24.200000000000003,-12.811380878272159,4.041525234617296,-10.0,0.813379108631559,3.6016077847098127,4.181835424536777e-38,0.9701976179570994,-0.1586360425302476,-2.2748557930862247e-38,0,70,255.0,255.0,255.0
485,24.25,-12.7695,4.2214,-10.0,0.8618395386175389,3.5932362546064742,3.0636811866476514e-38,0.9682195814822085,-0.17622516160333035,-4.245131372248161e-37,0,70,255.0,255.0,255.0
486,24.3,-12.725197882564876,4.40083591505951,-10.0,0.9102424793353128,3.5840880233975807,1.2102434639630544e-38,0.9678980472287184,-0.18970408675240638,-3.168619518490122e-37,0,70,255.0,255.0,255.0
487,24.35,-12.67847602001168,4.579797569902139,-10.0,0.9586293433404122,3.574265845931233,-1.0493833184251542e-39,0.9675765129752284,-0.20318301190148244,-2.0921076647320826e-37,0,70,255.0,255.0,255.0
488,24.400000000000002,-12.629335216176045,4.758251267215014,-10.0,1.007000130632837,3.563769722207432,-8.81864200769058e-39,0.9672549787217383,-0.21666193705055847,-1.015595810974043e-37,0,70,255.0,255.0,255.0
489,24.450000000000003,-12.577776274893605,4.936163309685263,-10.0,1.0553548412125873,3.552599652226177,-1.1205341428165735e-38,0.9669334444682481,-0.2301408621996345,6.09160427839957e-39,0,70,255.0,255.0,255.0
490,24.5,-12.5238,5.1135,-10.0,1.1036934750796599,3.5407556359874692,-8.209481579851017e-39,0.966611910214759,-0.2436197873487025,1.1374278965419584e-37,0,70,255.0,255.0,255.0
491,24.55,-12.467407301285961,5.290226250740052,-10.0,1.1520096749276174,3.528154267111768,-3.24334615237198e-39,0.9660360837035157,-0.2604349676793414,8.490262744496282e-38,0,70,255.0,255.0,255.0
492,24.6,-12.408599512362663,5.466301414060906,-10.0,1.2002970834500126,3.5147121392195344,2.80781164645385e-40,0.9654602571922722,-0.2772501480099803,5.606246523572979e-38,0,70,255.0,255.0,255.0
493,24.650000000000002,-12.347378072796383,5.641683452011736,-10.0,1.248555700646846,3.5004292523107696,2.3629003712010796e-39,0.9648844306810289,-0.2940653283406192,2.722230302649677e-38,0,70,255.0,255.0,255.0
494,24.700000000000003,-12.283744422153402,5.816330326641713,-10.0,1.2967855265181172,3.4853056063854724,3.0030114672950995e-39,0.9643086041697856,-0.3108805086712581,-1.617859182736264e-39,0,70,255.0,255.0,255.0
495,24.75,-12.2177,5.9902,-10.0,1.3449865610638227,3.469341201443644,2.201114452927555e-39,0.9637327776585369,-0.3276956890018923,-3.0458021391967255e-38,0,70,255.0,255.0,255.0
496,24.8,-12.149246512291278,6.163251081980295,-10.0,1.3931428209542138,3.45257490815534,8.709499698573783e-40,0.9625176179570797,-0.34295604253024714,-2.2748557930839056e-38,0,70,255.0,255.0,255.0
497,24.85,-12.078386730537662,6.335444773854265,-10.0,1.441238322859532,3.435045597190619,-7.374134015638323e-41,0.9613024582556224,-0.358216396058602,-1.5039094469710856e-38,0,70,255.0,255.0,255.0
498,24.900000000000002,-12.005123692638406,6.506742924738088,-10.0,1.4892730667797773,3.4167532685494795,-6.329594771137285e-40,0.9600872985541652,-0.37347674958695687,-7.329631008582659e-39,0,70,255.0,255.0,255.0
499,24.950000000000003,-11.929460436492766,6.677107383747944,-10.0,1.53724705271495,3.397697922231923,-8.0670444101466e-40,0.958872138852708,-0.38873710311531173,3.798324525455437e-40,0,70,255.0,255.0,255.0
500,25.0,-11.8514,6.8465,-10.0,1.5851602806650462,3.3778795582379493,-5.9497623185920305e-40,0.9576569791512402,-0.4039974566436726,8.08929591367319e-39,0,70,255.0,255.0,255.0
501,25.05,-11.770945049548924,7.01488302133878,-10.0,1.6330350412555346,3.3573221002668667,-2.4045372705753277e-40,0.9573334444682683,-0.4183008621996225,6.091604278393422e-39,0,70,255.0,255.0,255.0
502,25.1,-11.68809676548668,7.182220290522062,-10.0,1.6808936251118745,3.3360494720179865,1.4184195980147722e-41,0.9570099097852964,-0.4326042677555723,4.093912643113654e-39,0,70,255.0,255.0,255.0
503,25.150000000000002,-11.60285595664997,7.348476049035954,-10.0,1.7287360322340655,3.314061673491309,1.6893753725383851e-40,0.9566863751023245,-0.4469076733115222,2.096221007833886e-39,0,70,255.0,255.0,255.0
504,25.200000000000003,-11.515223431875507,7.513614538366567,-10.0,1.7765622626221083,3.2913587046868336,2.238062967635391e-40,0.9563628404193526,-0.4612110788674721,9.852937255411818e-41,0,70,255.0,255.0,255.0
505,25.25,-11.4252,7.6776,-10.0,1.8243723162759988,3.267940565604563,1.7879047450925737e-40,0.9560393057363807,-0.4755144844234245,-1.8991622627255066e-39,0,70,255.0,255.0,255.0
506,25.3,-11.332787689513014,7.840394432664598,-10.0,1.8720930140236536,3.243672690777195,9.08649383727526e-41,0.9527886041697794,-0.4952005086712741,-1.617859182734634e-39,0,70,255.0,255.0,255.0
507,25.35,-11.237993407515605,8.001950864057516,-10.0,1.919651176692978,3.218420514737435,1.700455623579167e-41,0.949537902603178,-0.5148865329191237,-1.3365561027437613e-39,0,70,255.0,255.0,255.0
508,25.400000000000002,-11.140825280761685,8.16222007911814,-10.0,1.9670468042839726,3.192184037485282,-4.2790671901625416e-41,0.9462872010365766,-0.5345725571669733,-1.0552530227528888e-39,0,70,255.0,255.0,255.0
509,25.450000000000003,-11.041291436005176,8.321152862785842,-10.0,2.014279896796637,3.1649632590207366,-8.852074603949873e-41,0.9430364994699753,-0.5542585814148229,-7.739499427620162e-40,0,70,255.0,255.0,255.0
510,25.5,-10.9394,8.4787,-10.0,2.0613504542309684,3.136758179343801,-1.2018566617782641e-40,0.9397857979033759,-0.5739446056626782,-4.926468627711635e-40,0,70,255.0,255.0,255.0
511,25.55,-10.835165792399007,8.634813648002842,-10.0,2.107856902649871,3.10765113662435,-1.230060264334777e-40,0.9204721388526903,-0.5903371031153237,3.7983245254511365e-40,0,70,255.0,255.0,255.0
512,25.6,-10.728630404450884,8.789451453247896,-10.0,2.153397668116239,3.077724469032268,-8.220242092331449e-41,0.9011584798020047,-0.6067296005679691,1.2523117678613908e-39,0,70,255.0,255.0,255.0
513,25.650000000000002,-10.619842120303257,8.94257243449153,-10.0,2.1979727506300724,3.0469781765675528,2.225150352663191e-42,0.8818448207513191,-0.6231220980206146,2.1247910831776682e-39,0,70,255.0,255.0,255.0
514,25.700000000000003,-10.508849224103749,9.094135610490111,-10.0,2.241582150191372,3.0154122592302057,1.3027668739445536e-40,0.8625311617006335,-0.6395145954732601,2.997270398493945e-39,0,70,255.0,255.0,255.0
515,25.75,-10.3957,9.2441,-10.0,2.284225866800134,2.9830267170202283,3.0195219020204826e-40,0.843217502649928,-0.6559070929258972,3.86974971381016e-39,0,70,255.0,255.0,255.0
516,25.8,-10.280439540890942,9.392430175324048,-10.0,2.326095375376866,2.950154762725395,4.011591673611581e-40,0.8315628404193275,-0.6589710788674318,9.852937255417886e-41,0,70,255.0,255.0,255.0
517,25.85,-10.163100174680835,9.539112922950924,-10.0,2.3673821508420683,2.917129609133484,3.1180512745746623e-40,0.819908178188727,-0.6620350648089663,-3.6726909687018024e-39,0,70,255.0,255.0,255.0
518,25.900000000000002,-10.043711038025258,9.68414058291578,-10.0,2.40808619319574,2.8839512562444973,3.38900704909725e-41,0.8082535159581264,-0.6650990507505008,-7.443911309957783e-39,0,70,255.0,255.0,255.0
519,25.950000000000003,-9.922301267579783,9.82750549525376,-10.0,2.448207502437882,2.850619704058433,-4.325860035383226e-40,0.7965988537275259,-0.6681630366920354,-1.1215131651213765e-38,0,70,255.0,255.0,255.0
520,26.0,-9.7989,9.9692,-10.0,2.4877460785684904,2.8171349525752953,-1.0876230946303666e-39,0.7849441914969297,-0.671227022633559,-1.4986351992469475e-38,0,70,255.0,255.0,255.0
521,26.05,-9.673536844037214,10.109215250700984,-10.0,2.5266735958426643,2.7834258124740847,-1.481630643011155e-39,0.772156499470008,-0.6771385814148446,-7.739499427618284e-40,0,70,255.0,255.0,255.0
522,26.1,-9.546243296825752,10.247537654948431,-10.0,2.564961728515492,2.74942109443381,-1.1650180889065505e-39,0.7593688074430862,-0.6830501401961302,1.3438452106945819e-38,0,70,255.0,255.0,255.0
523,26.150000000000002,-9.417051327595685,10.384152433845385,-10.0,2.6026104765869738,2.7151207984544707,-1.3778543231655417e-40,0.7465811154161643,-0.6889616989774157,2.7650854156653466e-38,0,70,255.0,255.0,255.0
524,26.200000000000003,-9.285992905577073,10.519044808494895,-10.0,2.63961984005711,2.6805249245360674,1.6000673267588358e-39,0.7337934233892426,-0.6948732577587012,4.1863256206361115e-38,0,70,255.0,255.0,255.0
525,26.25,-9.1531,10.6522,-10.0,2.6759898189258973,2.645633472678602,4.048540188319418e-39,0.7210057313623395,-0.7007848165399864,5.607565825606775e-38,0,70,255.0,255.0,255.0
526,26.3,-9.018404282960192,10.783603221872035,-10.0,2.7117382412524726,2.6104459873782693,5.525363404683461e-39,0.7089311617006471,-0.7067145954733065,2.997270398493141e-39,0,70,255.0,255.0,255.0
527,26.35,-8.881936238016133,10.913239657255385,-10.0,2.746882935095963,2.5749620131312705,4.3482672281687364e-39,0.6968565920389548,-0.7126443744066266,-5.008111745908147e-38,0,70,255.0,255.0,255.0
528,26.400000000000002,-8.743726051591977,11.041094481702721,-10.0,2.781423900456369,2.539181549937606,5.172516587752429e-40,0.6847820223772624,-0.7185741533399468,-1.0315950531665608e-37,0,70,255.0,255.0,255.0
529,26.450000000000003,-8.603803910111878,11.167152870766706,-10.0,2.81536113733369,2.503104597797275,-5.967683303497017e-39,0.6727074527155701,-0.7245039322732669,-1.562378931742307e-37,0,70,255.0,255.0,255.0
530,26.5,-8.4622,11.2914,-10.0,2.848694645727925,2.4667311567102805,-1.5106537658647305e-38,0.6606328830538892,-0.7304337112065937,-2.0931628103180157e-37,0,70,255.0,255.0,255.0
531,26.55,-8.318945224122002,11.41382146181089,-10.0,2.8813814391474604,2.4300862380128154,-2.061982297572269e-38,0.646838853727498,-0.7353630366919774,-1.1215131651210761e-38,0,70,255.0,255.0,255.0
532,26.6,-8.174073351109687,11.534404516030046,-10.0,2.9133785311006757,2.3931948530410816,-1.6228050823768393e-38,0.6330448244011069,-0.7402923621773612,1.8688601772938005e-37,0,70,255.0,255.0,255.0
533,26.650000000000002,-8.027618866036368,11.653136839343762,-10.0,2.944685921587572,2.3560570017950786,-1.931221202784416e-39,0.6192507950747158,-0.7452216876627449,3.849871671099709e-37,0,70,255.0,255.0,255.0
534,26.700000000000003,-7.879616253975365,11.77000610843832,-10.0,2.975303610608148,2.3186726842748064,2.2270665887229243e-38,0.6054567657483246,-0.7501510131481285,5.830883164905617e-37,0,70,255.0,255.0,255.0
535,26.75,-7.7301,11.885,-10.0,3.0052315981624025,2.2810419004802673,5.63776104462698e-38,0.5916627364219167,-0.7550803386335119,7.811894658711384e-37,0,70,255.0,255.0,255.0
536,26.8,-7.5791036205517806,11.99810533088442,-10.0,3.034528002157682,2.243113060570462,7.69539284982073e-38,0.5801934233892452,-0.7620732577586794,4.1863256206349756e-38,0,70,255.0,255.0,255.0
537,26.85,-7.4266567575450875,12.109305478624446,-10.0,3.063250940501328,2.2048345747043983,6.056393606690483e-38,0.5687241103565736,-0.7690661768838469,-6.974629534584389e-37,0,70,255.0,255.0,255.0
538,26.900000000000002,-7.272788084262504,12.218582960922259,-10.0,3.09140041319334,2.166206442882076,7.20763315236241e-39,0.557254797323902,-0.7760590960090145,-1.4367891631232273e-36,0,70,255.0,255.0,255.0
539,26.950000000000003,-7.117526273986611,12.325920295480051,-10.0,3.118976420233719,2.127228665103496,-8.311498024542e-38,0.5457854842912305,-0.783052015134182,-2.176115372788016e-36,0,70,255.0,255.0,255.0
540,27.0,-6.9609,12.4313,-10.0,3.145978961622462,2.08790124136866,-2.104039041264319e-37,0.5343161712585527,-0.7900449342593419,-2.9154415824527525e-36,0,70,255.0,255.0,255.0
541,27.05,-6.8029386936708605,12.534706014651437,-10.0,3.172362552221816,2.0483095197053434,-2.8719589101710653e-37,0.5210274527155901,-0.7936239322733123,-1.5623789317418906e-37,0,70,255.0,255.0,255.0
542,27.1,-6.643674818709932,12.636127969472192,-10.0,3.1980817068940217,2.0085388481413275,-2.2602769344385107e-37,0.5077387341726275,-0.7972029302872827,2.6029657961043744e-36,0,70,255.0,255.0,255.0
543,27.150000000000002,-6.4831415969135735,12.73555691696723,-10.0,3.2231364256390793,1.9685892266766138,-2.6899311406665294e-38,0.49445001562966495,-0.8007819283012532,5.362169485382938e-36,0,70,255.0,255.0,255.0
544,27.200000000000003,-6.321372250078139,12.832983909641513,-10.0,3.2475267084569888,1.9284606553112014,3.1018925509445044e-37,0.4811612970867024,-0.8043609263152236,8.121373174661501e-36,0,70,255.0,255.0,255.0
545,27.25,-6.1584,12.9284,-10.0,3.2712525553477487,1.8881531340450932,7.852380060594578e-37,0.46787257854373365,-0.8079399243291903,1.0880576863939869e-35,0,70,255.0,255.0,255.0
546,27.3,-5.994257604764762,13.021794610509836,-10.0,3.2943417889550504,1.8475688606081602,1.0718296355702187e-36,0.4556967657483055,-0.8154310131481126,5.830883164904046e-37,0,70,255.0,255.0,255.0
547,27.35,-5.828975967615153,13.1131506434868,-10.0,3.31682223192258,1.8066100327302808,8.435468377084991e-37,0.44352095295287736,-0.822922101967035,-9.71440023095906e-36,0,70,255.0,255.0,255.0
548,27.400000000000002,-5.662585528083162,13.202449371208852,-10.0,3.3386938842503384,1.7652766504114554,1.0038961247429887e-37,0.4313451401574492,-0.8304131907859573,-2.0011888778408527e-35,0,70,255.0,255.0,255.0
549,27.450000000000003,-5.495116725700778,13.289672065953935,-10.0,3.3599567459383253,1.723568713651684,-1.1576420401323819e-36,0.419169327362021,-0.8379042796048798,-3.030937732585799e-35,0,70,255.0,255.0,255.0
550,27.5,-5.3266,13.3748,-10.0,3.38061081698654,1.6814862224509692,-2.9305481201113993e-36,0.4069935145666044,-0.845395368423798,-4.060686587330673e-35,0,70,255.0,255.0,255.0
551,27.55,-5.157066087270078,13.457815543309223,-10.0,3.4006382919579865,1.6390950378620188,-4.000122651263768e-36,0.39410548429124415,-0.8502520151341898,-2.1761153727874275e-36,0,70,255.0,255.0,255.0
552,27.6,-4.986546910829425,13.538705456580612,-10.0,3.420021365415665,1.5964610209375492,-3.148159657390145e-36,0.3812174540158839,-0.8551086618445817,3.6254635127731873e-35,0,70,255.0,255.0,255.0
553,27.650000000000002,-4.815074690753735,13.61745759819739,-10.0,3.4387600373595757,1.5535841716775596,-3.746591384905296e-37,0.3683294237405237,-0.8599653085549734,7.468538562825117e-35,0,70,255.0,255.0,255.0
554,27.700000000000003,-4.642681647118693,13.694059826542778,-10.0,3.4568543077897176,1.5104644900820505,4.320378905435079e-36,0.35544139346516346,-0.8648219552653653,1.1311613612877047e-34,0,70,255.0,255.0,255.0
555,27.75,-4.4694,13.7685,-10.0,3.4743041767060907,1.467101976151025,1.0936954474386139e-35,0.34255336318978635,-0.8696786019757567,1.5154688662928708e-34,0,70,255.0,255.0,255.0
556,27.8,-4.295262046154916,13.840765616253274,-10.0,3.4911050432130026,1.4234749879437498,1.4928660969484857e-35,0.3294812970866799,-0.8754009263152278,8.121373174659324e-36,0,70,255.0,255.0,255.0
557,27.85,-4.120300389067115,13.91084273019076,-10.0,3.507252306414759,1.3795618835195007,1.1749091791852083e-35,0.3164092309835734,-0.8811232506546988,-1.3530414027996843e-34,0,70,255.0,255.0,255.0
558,27.900000000000002,-3.944547708901854,13.97871703600161,-10.0,3.5227459663113603,1.3353626628782787,1.3982469414878139e-36,0.3033371648804669,-0.8868455749941698,-2.7872965373459622e-34,0,70,255.0,255.0,255.0
559,27.950000000000003,-3.7680366858243923,14.044374227874973,-10.0,3.537586022902806,1.2908773260200825,-1.6123873581607933e-35,0.29026509877736045,-0.8925678993336408,-4.2215516718922395e-34,0,70,255.0,255.0,255.0
560,28.0,-3.5908,14.1078,-10.0,3.5517724761890963,1.2461058729449164,-4.081726977743316e-35,0.2771930326742513,-0.8982902236731185,-5.6558068064384125e-34,0,70,255.0,255.0,255.0
561,28.05,-3.412869728110247,14.168980391677684,-10.0,3.565341535190004,1.2010690103629669,-5.571452122667563e-35,0.26556932736204486,-0.9031842796048309,-3.0309377325849713e-35,0,70,255.0,255.0,255.0
562,28.1,-3.2342755329020885,14.227902822656354,-10.0,3.5783294089253013,1.155787444984432,-4.384820751001817e-35,0.2539456220498384,-0.9080783355365435,5.049619259921418e-34,0,70,255.0,255.0,255.0
563,28.150000000000002,-3.055046473638805,14.284555057796185,-10.0,3.5907360973949882,1.1102611768093114,-5.218328627460739e-36,0.2423219167376319,-0.9129723914682559,1.0402332293101334e-33,0,70,255.0,255.0,255.0
564,28.200000000000003,-2.8752116095836775,14.338924861957345,-10.0,3.6025616005990644,1.0644902058376051,6.017511542099666e-35,0.2306982114254254,-0.9178664473999685,1.575504532628125e-33,0,70,255.0,255.0,255.0
565,28.25,-2.6948,14.391,-10.0,3.61380591853753,1.0184745320693165,1.5233212463534649e-34,0.21907450611320556,-0.9227605033316841,2.1107758359460788e-33,0,70,255.0,255.0,255.0
566,28.3,-2.5138414414040824,14.440767217035996,-10.0,3.624424816026989,0.9721529706043892,2.0792942393721776e-34,0.20568139346513642,-0.9301019552653835,1.1311613612874013e-34,0,70,255.0,255.0,255.0
567,28.35,-2.3323686793245026,14.488209179183828,-10.0,3.634374057884044,0.9254643365427768,1.636437382482206e-34,0.19228828081706728,-0.9374434071990828,-1.8845435636885985e-33,0,70,255.0,255.0,255.0
568,28.400000000000002,-2.15041519654288,14.533307532813664,-10.0,3.643653644108696,0.8784086298844795,1.9475067568355138e-35,0.17889516816899814,-0.9447848591327822,-3.882203263505937e-33,0,70,255.0,255.0,255.0
569,28.450000000000003,-1.9680144758408344,14.576043924295666,-10.0,3.652263574700944,0.8309858506294973,-2.245765881023787e-34,0.165502055520929,-0.9521263110664816,-5.8798629633232756e-33,0,70,255.0,255.0,255.0
570,28.5,-1.7852,14.6164,-10.0,3.6602038496607885,0.7831959987778333,-5.685112287639528e-34,0.15210894287282883,-0.9594677630001796,-7.87752266314047e-33,0,70,255.0,255.0,255.0
571,28.55,-1.6020053062734065,14.654359540178335,-10.0,3.667471200702043,0.7351671072194861,-7.760031745221952e-34,0.138585098777345,-0.9616878993336853,-4.221551671891091e-34,0,70,255.0,255.0,255.0
572,28.6,-1.4184641497998698,14.68991486060834,-10.0,3.674062359538523,0.6870272088444633,-6.107267454828642e-34,0.12506125468186116,-0.9639080356671911,7.033212328762252e-33,0,70,255.0,255.0,255.0
573,28.650000000000002,-1.2346103401896287,14.723060410949174,-10.0,3.679977326170229,0.6387763036527655,-7.268194164595988e-35,0.11153741058637734,-0.9661281720006968,1.4488579824713613e-32,0,70,255.0,255.0,255.0
574,28.700000000000003,-1.0504776870529215,14.753790640860005,-10.0,3.685216100597161,0.5904143916443924,8.38131236988518e-34,0.09801356649089352,-0.9683483083342025,2.1943947320664974e-32,0,70,255.0,255.0,255.0
575,28.75,-0.8661,14.7821,-10.0,3.6897786828193184,0.5419414728193472,2.1217127904204643e-33,0.08448972239540353,-0.9705684446677099,2.9399314816615804e-32,0,70,255.0,255.0,255.0
576,28.8,-0.6815125335022747,14.807988222250662,-10.0,3.6935783811648397,0.4936746005176553,2.896083274151563e-33,0.06749821142543316,-0.9601064473999396,1.5755045326276928e-33,0,70,255.0,255.0,255.0
577,28.85,-0.49675632147598575,14.831476178382824,-10.0,3.696528503961862,0.4459308280793519,2.279263243683236e-33,0.05050670045546278,-0.9496444501321692,-2.624830575136042e-32,0,70,255.0,255.0,255.0
578,28.900000000000002,-0.3118738426985583,14.852590023389654,-10.0,3.698629051210386,0.398710155504437,2.712526990154837e-34,0.0335151894854924,-0.9391824528643989,-5.407211603534853e-32,0,70,255.0,255.0,255.0
579,28.950000000000003,-0.12690757594741695,14.871355912264324,-10.0,3.699880022910411,0.35201258279291064,-3.1279483598516946e-33,0.016523678515522028,-0.9287204555966286,-8.189592631933664e-32,0,70,255.0,255.0,255.0
580,29.0,0.0581,14.8878,-10.0,3.700281419061938,0.3058381099447761,-7.918339932917905e-33,-0.0004678324544329371,-0.9182584583288596,-1.0971973660332276e-31,0,70,255.0,255.0,255.0
581,29.05,0.2431106402825212,14.901946770819022,-10.0,3.7000872746386,0.2600864907098922,-1.0808329922084057e-32,-0.007297944479076177,-0.9118063110664727,-5.8798629633216786e-33,0,70,255.0,255.0,255.0
582,29.1,0.4281030357038447,14.913814025860376,-10.0,3.6995516246140303,0.21465747883812752,-8.506326229250082e-33,-0.014128056503719417,-0.905354163804086,9.79600106766794e-32,0,70,255.0,255.0,255.0
583,29.150000000000002,0.613060110983909,14.923417895492218,-10.0,3.6986744689882283,0.16955107432948227,-1.0123288544159772e-33,-0.020958168528362655,-0.8989020165416991,2.0179988431668046e-31,0,70,255.0,255.0,255.0
584,29.200000000000003,0.7979647908426524,14.93077451008271,-10.0,3.697455807761194,0.12476727718395635,1.1673662202418254e-32,-0.027788280553005897,-0.8924498692793124,3.0563975795668157e-31,0,70,255.0,255.0,255.0
585,29.25,0.9828,14.9359,-10.0,3.6958956409329278,0.08030608740155294,2.955164694125116e-32,-0.03461839257766286,-0.885997722016926,4.094796315966753e-31,0,70,255.0,255.0,255.0
586,29.3,1.1675467723722055,14.938810294473258,-10.0,3.6938805202807585,0.036155436642773195,4.0337236414184666e-32,-0.04598643350911845,-0.8800283083342388,2.1943947320659087e-32,0,70,255.0,255.0,255.0
