idx,t,px,py,pz,vx,vy,vz,ax,ay,az,yaw,mode,ledr,ledg,ledb
0,0.0,-3.0,0.0,0.0,0.01785739511513812,0.015499918346865843,0.030802699378290888,-0.4862887413816559,-0.42839902016239007,-0.8536323925394904,0,70,255.0,255.0,255.0
1,0.05,-2.999713133775855,0.00024119706048717033,0.0004760971776184721,-0.0063455982470363905,-0.005818037560441711,-0.011698758285986186,-0.48183099310532446,-0.4243192161299121,-0.8464259140315924,0,70,255.0,255.0,255.0
2,0.1,-3.000630845034473,-0.0005784039193504396,-0.001163870429842037,-0.030325704195394328,-0.026932003266125364,-0.05383989202486836,-0.477373244828993,-0.42023941209743404,-0.8392194355236944,0,70,255.0,255.0,255.0
3,0.15000000000000002,-3.002741989405164,-0.002448603429431635,-0.0049018866261117825,-0.0540829227299357,-0.047841978770185124,-0.09562070183835562,-0.4729154965526615,-0.41615960806495605,-0.8320129570157964,0,70,255.0,255.0,255.0
4,0.2,-3.006035422517237,-0.0053592019596752204,-0.010719935214921018,-0.07761725385066048,-0.06854796407262097,-0.137041187726448,-0.4684577482763301,-0.412079804032478,-0.8248064785078983,0,70,255.0,255.0,255.0
5,0.25,-3.0105,-0.0093,-0.0186,-0.1009286975575687,-0.08904995917343292,-0.17810134968914546,-0.46399999999999886,-0.4079999999999997,-0.8176000000000008,0,70,255.0,255.0,255.0
6,0.30000000000000004,-3.016124577482763,-0.014260798040324782,-0.028524064785078993,-0.12401725385066038,-0.10934796407262097,-0.21880118772644808,-0.45954225172366725,-0.4039201959675218,-0.8103935214921023,0,70,255.0,255.0,255.0
7,0.35000000000000003,-3.0228980105948358,-0.020231396570568366,-0.04047411337388823,-0.14688292272993544,-0.1294419787701851,-0.2591407018383557,-0.4550845034473357,-0.39984039193504395,-0.803187042984204,0,70,255.0,255.0,255.0
8,0.4,-3.0308091549655263,-0.027201596080649558,-0.05443212957015798,-0.16952570419539395,-0.14933200326612533,-0.29911989202486844,-0.4506267551710041,-0.3957605879025661,-0.7959805644763055,0,70,255.0,255.0,255.0
9,0.45,-3.039846866224145,-0.03516119706048717,-0.07038009717761849,-0.19194559824703583,-0.16901803756044173,-0.3387387582859862,-0.44616900689467254,-0.3916807838700882,-0.7887740859684071,0,70,255.0,255.0,255.0
10,0.5,-3.05,-0.0441,-0.0883,-0.2141426048848612,-0.1885000816531342,-0.37799730062170916,-0.44171125861834115,-0.387600979837611,-0.7815676074605085,0,70,255.0,255.0,255.0
11,0.55,-3.0612565562930913,-0.05400760489918806,-0.10817183803730257,-0.2360653863503199,-0.20776610614907448,-0.41677649080822193,-0.43520000000000597,-0.38304000000000016,-0.7695999999999994,0,70,255.0,255.0,255.0
12,0.6000000000000001,-3.073601112586183,-0.06487280979837613,-0.12996767607460513,-0.2576626048848618,-0.22680408165313423,-0.4549573006217092,-0.4286887413816708,-0.3784790201623894,-0.7576323925394904,0,70,255.0,255.0,255.0
13,0.65,-3.087017390732729,-0.07668421224797013,-0.15365759509325638,-0.278934260488487,-0.24561400816531342,-0.49253973006217094,-0.42217748276333567,-0.37391804032477854,-0.7456647850789814,0,70,255.0,255.0,255.0
14,0.7000000000000001,-3.1014891125861834,-0.08943040979837613,-0.17921167607460514,-0.2998803531611954,-0.26419588568561214,-0.5295237791296072,-0.4156662241450005,-0.36935706048716777,-0.7336971776184723,0,70,255.0,255.0,255.0
15,0.75,-3.117,-0.1031,-0.2066,-0.320500882902987,-0.2825497142140302,-0.5659094478240182,-0.4091549655266653,-0.3647960806495574,-0.721729570157966,0,70,255.0,255.0,255.0
16,0.8,-3.13353399734487,-0.11768078236292301,-0.23579338306571088,-0.34080920074806187,-0.30062761133108107,-0.6017408490406648,-0.4031777482763288,-0.35831980403247793,-0.7115264785078986,0,70,255.0,255.0,255.0
17,0.8500000000000001,-3.151075939060431,-0.13315736423592725,-0.26676558232769154,-0.36081865773061994,-0.318381694617278,-0.6370620956748081,-0.3972005310259923,-0.3518435274153985,-0.7013233868578312,0,70,255.0,255.0,255.0
18,0.9,-3.169610882103557,-0.14951355492746993,-0.2994910900568166,-0.3805292538506611,-0.3358119640726209,-0.6718731877264479,-0.3912233137756558,-0.3453672507983191,-0.691120295207764,0,70,255.0,255.0,255.0
19,0.9500000000000001,-3.189123883431122,-0.1667331637460084,-0.33394439852396124,-0.3999409891081855,-0.3529184196971099,-0.7061741251955845,-0.38524609652531927,-0.33889097418123965,-0.6809172035576966,0,70,255.0,255.0,255.0
20,1.0,-3.2096,-0.1848,-0.3701,-0.419053863503193,-0.3697010614907449,-0.7399649080822176,-0.3792688792749819,-0.332414697564162,-0.670714111907631,0,70,255.0,255.0,255.0
21,1.05,-3.2310242543274286,-0.20369886564911993,-0.4079322296998541,-0.43786581065743413,-0.3862194485266012,-0.7732361130291185,-0.37320900689466335,-0.3283207838700893,-0.6601340859684084,0,70,255.0,255.0,255.0
22,1.1,-3.253381531172093,-0.22341853325791508,-0.4474147946146292,-0.4563747641926594,-0.40253313987775385,-0.8059783166790585,-0.36714913451434483,-0.32422687017601654,-0.6495540600291859,0,70,255.0,255.0,255.0
23,1.1500000000000001,-3.2766566808530437,-0.24394876804215027,-0.4885212446794774,-0.47458072410886865,-0.4186421355442028,-0.8381915190320373,-0.3610892621340263,-0.32013295648194384,-0.6389740340899633,0,70,255.0,255.0,255.0
24,1.2000000000000002,-3.3008345536893295,-0.26527933521759034,-0.5312251298295504,-0.4924836904060621,-0.43454643552594824,-0.8698757200880549,-0.3550293897537078,-0.31603904278787115,-0.6283940081507408,0,70,255.0,255.0,255.0
25,1.25,-3.3259,-0.2874,-0.5755,-0.5100836630842394,-0.45024603982298994,-0.9010309198471113,-0.3489695173733889,-0.31194512909379934,-0.6178139822115165,0,70,255.0,255.0,255.0
26,1.3,-3.351837785345417,-0.3102997550405973,-0.6213192981348729,-0.5273755566221994,-0.4656945945625141,-0.931650698842861,-0.3427062241450088,-0.30599706048716796,-0.6069771776184725,0,70,255.0,255.0,255.0
27,1.35,-3.3786323362511963,-0.33396450273241257,-0.668656039213792,-0.5443542854987403,-0.48084574587170675,-0.9617286376089585,-0.33644293091662864,-0.3000489918805366,-0.5961403730254284,0,70,255.0,255.0,255.0
28,1.4000000000000001,-3.406267994484267,-0.3583793729039292,-0.7174831312252747,-0.5610198497138622,-0.4956994937505678,-0.9912647361454039,-0.33017963768824854,-0.2941009232739052,-0.5853035684323844,0,70,255.0,255.0,255.0
29,1.4500000000000002,-3.434729101811559,-0.38352949538363057,-0.7677734821578384,-0.5773722492675651,-0.5102558381990974,-1.0202589944521971,-0.32391634445986844,-0.2881528546672738,-0.5744667638393404,0,70,255.0,255.0,255.0
30,1.5,-3.464,-0.4094,-0.8195,-0.593411484159849,-0.5245147792172952,-1.048711412529338,-0.317653051231483,-0.2822047860606398,-0.5636299592463008,0,70,255.0,255.0,255.0
31,1.55,-3.4940654042909047,-0.4359765141884908,-0.8726353777606546,-0.609159962853769,-0.5385061732233422,-1.0766090915994382,-0.31228609652531636,-0.27745097418124,-0.5522772035576982,0,70,255.0,255.0,255.0
32,1.6,-3.524911523823122,-0.46324665581243474,-0.9271514485302034,-0.6246400938123807,-0.5522598766354192,-1.1039391328851078,-0.30691914181914975,-0.2726971623018402,-0.5409244478690954,0,70,255.0,255.0,255.0
33,1.6500000000000001,-3.5565249412098874,-0.4911985403421333,-0.983019830419425,-0.639851877035684,-0.5657758894535263,-1.1307015363863477,-0.3015521871129831,-0.2679433504224404,-0.5295716921804927,0,70,255.0,255.0,255.0
34,1.7000000000000002,-3.588892239064435,-0.5198202832478879,-1.0402121415390977,-0.6547953125236791,-0.5790542116776632,-1.156896302103157,-0.29618523240681643,-0.26318953854304056,-0.5182189364918901,0,70,255.0,255.0,255.0
35,1.75,-3.622,-0.5491,-1.0987,-0.6694704002763656,-0.5920948433078302,-1.1825234300355367,-0.29081827770064805,-0.2584357266636408,-0.5068661808032893,0,70,255.0,255.0,255.0
36,1.8,-3.655834197490966,-0.5790253882054396,-1.1584559908225092,-0.6838405919627244,-0.604872712544118,-1.2076409347593875,-0.28398938975370275,-0.25267904278786996,-0.4978340081507383,0,70,255.0,255.0,255.0
37,1.85,-3.6903783684563165,-0.6095824740178488,-1.2194565666653951,-0.6978693392517359,-0.6173627475866172,-1.2323068308506107,-0.2771605018067575,-0.24692235891209913,-0.48880183549818734,0,70,255.0,255.0,255.0
38,1.9000000000000001,-3.725615440676184,-0.6407568657275382,-1.2816791470970266,-0.7115566421434002,-0.629564948435328,-1.2565211183092062,-0.2703316138598122,-0.24116567503632833,-0.47976966284563644,0,70,255.0,255.0,255.0
39,1.9500000000000002,-3.761528341930701,-0.6725341716248184,-1.345101151685772,-0.7249025006377172,-0.6414793150902501,-1.2802837971351742,-0.26350272591286694,-0.2354089911605575,-0.4707374901930855,0,70,255.0,255.0,255.0
40,2.0,-3.7981,-0.7049,-1.4097,-0.7379069147346868,-0.6531058475513836,-1.3035948673285147,-0.2566738379659199,-0.2296523072847858,-0.4617053175405381,0,70,255.0,255.0,255.0
41,2.0500000000000003,-3.835313805745231,-0.7378403329897513,-1.4754518589493095,-0.7505976692953318,-0.664466976600185,-1.326379169363012,-0.25095634445987397,-0.22479285466727353,-0.4496667638393468,0,70,255.0,255.0,255.0
42,2.1,-3.8731550023516115,-0.7713426481161706,-1.5423278848082171,-0.7630025491806743,-0.6755851330181109,-1.3485615437124496,-0.24523885095382808,-0.21993340204976128,-0.4376282101381555,0,70,255.0,255.0,255.0
43,2.15,-3.911609296085376,-0.8053947967477142,-1.6102979811924698,-0.7751215543907144,-0.6864603168051612,-1.3701419903768273,-0.2395213574477822,-0.21507394943224903,-0.4255896564369643,0,70,255.0,255.0,255.0
44,2.2,-3.9506623932127614,-0.8399846302528389,-1.6793320517178154,-0.7869546849254525,-0.6970925279613359,-1.3911205093561458,-0.23380386394173625,-0.21021449681473675,-0.4135511027357729,0,70,255.0,255.0,255.0
45,2.25,-3.9903,-0.8751,-1.7494,-0.7985019407848882,-0.707481766486635,-1.4114971006504047,-0.22808637043569124,-0.20535504419723072,-0.40151254903457456,0,70,255.0,255.0,255.0
46,2.3000000000000003,-4.030508179528111,-0.9107284798355559,-1.8204733733802545,-0.8097847308559507,-0.717611381055142,-1.4313703877885662,-0.2232252324068069,-0.19982953854304542,-0.39341893649188286,0,70,255.0,255.0,255.0
47,2.35,-4.071274422137238,-0.946856533517469,-1.8925302941017377,-0.820824464025569,-0.7274647203409396,-1.450838994299593,-0.2183640943779226,-0.19430403288886014,-0.3853253239491913,0,70,255.0,255.0,255.0
48,2.4000000000000004,-4.11258657498231,-0.9834703472816047,-1.965550528133095,-0.831621140293743,-0.737041784344028,-1.4699029201834855,-0.21350295634903824,-0.18877852723467484,-0.37723171140649964,0,70,255.0,255.0,255.0
49,2.45,-4.154432485218255,-1.020556107363827,-2.0395138414429677,-0.8421747596604728,-0.746342573064407,-1.488562165440243,-0.2086418183201539,-0.18325302158048956,-0.369138098863808,0,70,255.0,255.0,255.0
50,2.5,-4.1968,-1.0581,-2.1144,-0.8524853221257583,-0.755367086502077,-1.5068167300698658,-0.20378068029127316,-0.17772751592630343,-0.3610444863211075,0,70,255.0,255.0,255.0
51,2.5500000000000003,-4.239676676142327,-1.0960881476680262,-2.190187447529675,-0.8625354072808623,-0.7641114991792484,-1.5245872794827207,-0.19822272591288317,-0.17204899116055078,-0.34977749019308635,0,70,255.0,255.0,255.0
52,2.6,-4.2830489090994375,-1.1345064178139534,-2.266849338784832,-0.8723075947170467,-0.772571985618132,-1.5417944790891744,-0.19266477153449324,-0.1663704663947982,-0.3385104940650652,0,70,255.0,255.0,255.0
53,2.6500000000000004,-4.326902803985384,-1.1733406141258682,-2.3443575062751525,-0.8818018844343116,-0.7807485458187282,-1.5584383288892272,-0.18710681715610328,-0.16069194162904554,-0.32724349793704405,0,70,255.0,255.0,255.0
54,2.7,-4.371224465914219,-1.212576540291855,-2.4226837825103145,-0.8910182764326571,-0.7886411797810366,-1.574518828882879,-0.18154886277771334,-0.15501341686329295,-0.3159765018090229,0,70,255.0,255.0,255.0
55,2.75,-4.416,-1.2522,-2.5018,-0.899956770712083,-0.7962498875050574,-1.5900359790701295,-0.17599090839932785,-0.14933489209753859,-0.30470950568099475,0,70,255.0,255.0,255.0
56,2.8000000000000003,-4.46121471590258,-1.2921973294923406,-2.5816784365010474,-0.9085696400206092,-0.8036066222278644,-1.605016494280549,-0.16852386394171925,-0.14493449681474002,-0.2945111027357821,0,70,255.0,255.0,255.0
57,2.85,-4.506850741465013,-1.3325569952267173,-2.662293150758934,-0.916809157106255,-0.8107433371865315,-1.6194870893437079,-0.16105681948411074,-0.14053410153194149,-0.28431269979056956,0,70,255.0,255.0,255.0
58,2.9000000000000004,-4.552889409076157,-1.3732679962149248,-2.7436186467662975,-0.9246753219690204,-0.8176600323810586,-1.633447764259606,-0.15358977502650215,-0.13613370624914292,-0.27411429684535693,0,70,255.0,255.0,255.0
59,2.95,-4.599312051124867,-1.4143193314687545,-2.8256294285157737,-0.9321681346089052,-0.8243567078114457,-1.6468985190282435,-0.14612273056889363,-0.1317333109663444,-0.26391589390014436,0,70,255.0,255.0,255.0
60,3.0,-4.6461,-1.4557,-2.9083,-0.9392875950259095,-0.8308333634776929,-1.65983935364962,-0.1386556861112913,-0.12733291568354677,-0.2537174909549371,0,70,255.0,255.0,255.0
61,3.0500000000000003,-4.693235660247354,-1.4973985343626133,-2.9916044064661373,-0.9460980326366957,-0.8370620119092939,-1.6722427433950886,-0.1337618183201529,-0.1218130215804935,-0.24241809886379637,0,70,255.0,255.0,255.0
62,3.1,-4.7407057250405105,-1.539401601279177,-3.075514858179433,-0.9526637768579249,-0.8430146656357422,-1.6840811635359998,-0.12886795052901456,-0.11629312747744026,-0.2311187067726557,0,70,255.0,255.0,255.0
63,3.1500000000000004,-4.788497959709988,-1.5816954010144348,-3.160003106659661,-0.9589848276895971,-0.8486913246570379,-1.695354614072354,-0.12397408273787619,-0.11077323337438699,-0.21981931468151494,0,70,255.0,255.0,255.0
64,3.2,-4.83660012958631,-1.6242661338331281,-3.2450409034265926,-0.9650611851317125,-0.854091988973181,-1.7060630950041513,-0.11908021494673784,-0.10525333927133376,-0.20851992259037427,0,70,255.0,255.0,255.0
65,3.25,-4.885,-1.6671,-3.3306,-0.9708928491842709,-0.8592166585841712,-1.7162066063313917,-0.1141863471555995,-0.09973344516827964,-0.19722053049923893,0,70,255.0,255.0,255.0
66,3.3000000000000003,-4.933685043108,-1.7101829330572087,-3.4166527376344065,-0.9764622294326046,-0.8640493301349604,-1.7258205321390978,-0.10858886277774801,-0.09357341686329047,-0.18733650180901296,0,70,255.0,255.0,255.0
67,3.35,-4.982641558372945,-1.7534997996565753,-3.5031738165233346,-0.9817517354620456,-0.8685740002705002,-1.7349402565122929,-0.10299137839989657,-0.08741338855830136,-0.17745247311878706,0,70,255.0,255.0,255.0
68,3.4000000000000004,-5.03185555208389,-1.7970351997273382,-3.5901385265950605,-0.9867613672725942,-0.8727906689907906,-1.7435657794509767,-0.09739389402204508,-0.08125336025331217,-0.16756844442856106,0,70,255.0,255.0,255.0
69,3.45,-5.08131303052989,-1.8407737331987337,-3.6775221577778576,-0.9914911248642503,-0.8766993362958314,-1.7516971009551492,-0.09179640964419364,-0.07509333194832306,-0.15768441573833517,0,70,255.0,255.0,255.0
70,3.5,-5.131,-1.8847,-3.7653,-0.9959410082370136,-0.8803000021856228,-1.75933422102481,-0.08619892526634398,-0.06893330364332773,-0.1478003870481075,0,70,255.0,255.0,255.0
71,3.5500000000000003,-5.180901767320643,-1.9287993334085536,-3.853447042996239,-1.000069049632894,-0.8836366675508646,-1.7664591280485167,-0.0789227305688653,-0.06453331096634132,-0.13719589390015863,0,70,255.0,255.0,255.0
72,3.6,-5.231000841467709,-1.9730600000945224,-3.9419370757272283,-1.0038332812939001,-0.8867533332822569,-1.7730538104148257,-0.07164653587138668,-0.06013331828935495,-0.12659140075220987,0,70,255.0,255.0,255.0
73,3.6500000000000004,-5.281279031954452,-2.017471000076215,-4.030743586960099,-1.0072337032200325,-0.8896499993798,-1.7791182681237376,-0.064370341173908,-0.05573332561236854,-0.11598690760426102,0,70,255.0,255.0,255.0
74,3.7,-5.33171814829413,-2.062021333371938,-4.119840065461979,-1.0102703154112909,-0.8923266658434937,-1.784652501175252,-0.05709414647642938,-0.05133333293538217,-0.10538241445631225,0,70,255.0,255.0,255.0
75,3.75,-5.3823,-2.1067,-4.2092,-1.0129431178676755,-0.8947833326733381,-1.7896565095693688,-0.0498179517789481,-0.046933340258391354,-0.0947779213083706,0,70,255.0,255.0,255.0
76,3.8000000000000003,-5.433007087609428,-2.151495733308579,-4.298796690380639,-1.0152935720358178,-0.8970039996615812,-1.7941189556668375,-0.04420021494673986,-0.04189333927133131,-0.08371992259037307,0,70,255.0,255.0,255.0
77,3.85,-5.483824675756221,-2.1963961999653354,-4.388602680567752,-1.0173631393623495,-0.8989726666004713,-1.7980285018284061,-0.03858247811453167,-0.03685333828427132,-0.07266192387237565,0,70,255.0,255.0,255.0
78,3.9000000000000004,-5.534738720098302,-2.2413887999678037,-4.478590325564547,-1.0191518198472709,-0.9006893334900082,-1.801385148054075,-0.032964741282323434,-0.03181333729721128,-0.061603925154378125,0,70,255.0,255.0,255.0
79,3.95,-5.585735176293588,-2.286460933313514,-4.568731980374229,-1.0206596134905819,-0.9021540003301924,-1.804188894343844,-0.027347004450115245,-0.02677333631015129,-0.0505459264363807,0,70,255.0,255.0,255.0
80,4.0,-5.6368,-2.3316,-4.659,-1.0218865202922824,-0.9033666671210235,-1.806439740697713,-0.021729267617907055,-0.02173333532309396,-0.03948792771839038,0,70,255.0,255.0,255.0
81,4.05,-5.687919482241647,-2.376792933357132,-4.749366995481208,-1.0228526622238352,-0.9042993338028089,-1.8081530492841313,-0.01691640964419891,-0.015573331948323797,-0.029044415738336264,0,70,255.0,255.0,255.0
82,4.1000000000000005,-5.739081255507406,-2.4220248000441362,-4.839806602001764,-1.0235781612567023,-0.904924000315856,-1.8093441822715468,-0.01210355167049068,-0.009413328573553526,-0.01860090375828196,0,70,255.0,255.0,255.0
83,4.15,-5.79027328765234,-2.467280200052572,-4.930292710781714,-1.0240630173908842,-0.9052406666601643,-1.8100131396599592,-0.007290693696782534,-0.0032533251987833627,-0.008157391778227843,0,70,255.0,255.0,255.0
84,4.2,-5.841483546531515,-2.512543733374006,-5.020799213041109,-1.0243072306263805,-0.9052493328357343,-1.8101599214493693,-0.0024778357230743897,0.0029066781759867974,0.0022861202018262736,0,70,255.0,255.0,255.0
85,4.25,-5.8927,-2.5578,-5.1113,-1.0243108009631914,-0.9049499988425657,-1.8097845276397768,0.0023350222506461904,0.009066681550760514,0.012729632181883943,0,70,255.0,255.0,255.0
86,4.3,-5.943909383423982,-2.603034133262892,-5.201768927694527,-1.0239997790688358,-0.9043746651271813,-1.8088848471966377,0.010105853523571868,0.013946667064614875,0.023257585543677767,0,70,255.0,255.0,255.0
87,4.3500000000000005,-5.995093502214157,-2.648233399858124,-5.292179711425196,-1.0233002156108342,-0.9035553321361042,-1.807458769085409,0.017876684796497684,0.018826652578469324,0.033785538905471785,0,70,255.0,255.0,255.0
88,4.4,-6.046232929292338,-2.6933855998219083,-5.382506031308601,-1.0222121105891862,-0.9024919998693343,-1.8055062933060906,0.025647516069423358,0.023706638092323686,0.04431349226726561,0,70,255.0,255.0,255.0
89,4.45,-6.0973082375803465,-2.7384785331904618,-5.472721567461337,-1.020735464003892,-0.9011846683268718,-1.8030274198586824,0.03341834734234904,0.028586623606178047,0.05484144562905943,0,70,255.0,255.0,255.0
90,4.5,-6.1483,-2.7835,-5.5628,-1.018870275854951,-0.8996333375087165,-1.8000221487431847,0.04118917861527649,0.03346660912003596,0.06536939899086036,0,70,255.0,255.0,255.0
91,4.55,-6.199190184062422,-2.8284377335912985,-5.652714893740681,-1.0167002215008225,-0.8978340056884692,-1.7964835619293222,0.045612995549865316,0.03850666368985765,0.07617407356363014,0,70,255.0,255.0,255.0
92,4.6000000000000005,-6.24996633563597,-2.8732792005233727,-5.742439352297456,-1.0143089762999644,-0.8957826711397308,-1.7924047413868216,0.05003681248445422,0.04354671825967943,0.08697874813640011,0,70,255.0,255.0,255.0
93,4.65,-6.300617395178307,-2.9180118006597975,-5.831946363983888,-1.0116965402523772,-0.8934793338625012,-1.7877856871156823,0.05446062941904305,0.048586772829501114,0.09778342270916987,0,70,255.0,255.0,255.0
94,4.7,-6.3511323031470965,-2.962622933864148,-5.921208917113547,-1.0088629133580602,-0.8909239938567807,-1.7826263991159048,0.058884446353631874,0.0536268273993228,0.10858809728193965,0,70,255.0,255.0,255.0
95,4.75,-6.4015,-3.0071,-6.0102,-1.0058080956170137,-0.8881166511225689,-1.7769268773874884,0.06330826328821892,0.058666881969147155,0.11939277185471298,0,70,255.0,255.0,255.0
96,4.800000000000001,-6.451708280326329,-3.0514301323719146,-6.098893097342747,-1.002463334927884,-0.8850413121189404,-1.7707169050860745,0.0704821642769642,0.06434667817598987,0.1290061202018394,0,70,255.0,255.0,255.0
97,4.8500000000000005,-6.5017403552419655,-3.095599398048389,-6.187263679384985,-0.9987598791893172,-0.8816819833049699,-1.7640262653673044,0.07765606526570935,0.07002647438283247,0.13861946854896567,0,70,255.0,255.0,255.0
98,4.9,-6.551578289994437,-3.1395935975389055,-6.275287712755854,-0.9946977284013131,-0.8780386646806572,-1.7568549582311779,0.08482996625445449,0.07570627058967506,0.14823281689609197,0,70,255.0,255.0,255.0
99,4.95,-6.601204149831273,-3.1833985313529487,-6.36294116408448,-0.9902768825638718,-0.8741113562460024,-1.7492029836776954,0.09200386724319964,0.08138606679651768,0.15784616524321823,0,70,255.0,255.0,255.0
100,5.0,-6.6506,-3.227,-6.4502,-0.9854973416769931,-0.8699000580010054,-1.741070341706856,0.09917776823194391,0.0870658630033656,0.16745951359034628,0,70,255.0,255.0,255.0
101,5.050000000000001,-6.699748694632264,-3.270384136921045,-6.53703911688834,-0.9804064387876359,-0.865424745835767,-1.7323928177263712,0.10445834734233823,0.09194662360616988,0.17964144562904333,0,70,255.0,255.0,255.0
102,5.1000000000000005,-6.748636243396172,-3.3135384072830747,-6.623429130162607,-0.9750515069427593,-0.8607053956403884,-1.7231061971439516,0.10973892645273248,0.09682738420897406,0.19182337766774019,0,70,255.0,255.0,255.0
103,5.15,-6.797249444843947,-3.3564506091845816,-6.709339584992701,-0.9694325461423628,-0.8557420074148696,-1.7132104799595973,0.11501950556312672,0.10170814481177824,0.20400530970643702,0,70,255.0,255.0,255.0
104,5.2,-6.845575097527816,-3.399108540724059,-6.794740026548531,-0.9635495563864466,-0.8505345811592107,-1.702705666173308,0.12030008467352095,0.10658890541458244,0.21618724174513387,0,70,255.0,255.0,255.0
105,5.25,-6.8936,-3.4415,-6.8796,-0.9574025376750107,-0.8450831168734114,-1.691591755785084,0.12558066378391164,0.11146966601738661,0.2283691737838236,0,70,255.0,255.0,255.0
106,5.300000000000001,-6.941310541144618,-3.483612519943907,-6.9638904351039015,-0.9509669099215725,-0.8393717045379935,-1.67995182400844,0.1318444463536145,0.11698682739932921,0.23722809728192806,0,70,255.0,255.0,255.0
107,5.3500000000000005,-6.988691471173349,-3.525432572819315,-7.047587799964597,-0.9442180930396492,-0.8333844341334784,-1.667868946056891,0.13810822892331726,0.12250398878127171,0.24608702078003236,0,70,255.0,255.0,255.0
108,5.4,-7.035727130629773,-3.5669463657227696,-7.130669947273341,-0.9371560870292408,-0.8271213056598663,-1.6553431219304369,0.14437201149301998,0.1280211501632142,0.25494594427813666,0,70,255.0,255.0,255.0
109,5.45,-7.082401860057465,-3.6081401057508167,-7.213114729721391,-0.9297808918903472,-0.8205823191171571,-1.6423743516290774,0.15063579406272273,0.1335383115451567,0.26380486777624096,0,70,255.0,255.0,255.0
110,5.5,-7.1287,-3.649,-7.2949,-0.9220925076229686,-0.8137674745053508,-1.628962635152813,0.15689957663242193,0.13905547292709652,0.2726637912743435,0,70,255.0,255.0,255.0
111,5.550000000000001,-7.174605940789271,-3.6895121833033304,-7.376002342696062,-0.9140939215260774,-0.8066724360122601,-1.615031886239873,0.1630438672432212,0.14474606679652513,0.28456616524325057,0,70,255.0,255.0,255.0
112,5.6000000000000005,-7.220104271910434,-3.7296625014396683,-7.4563932699790145,-0.9057881208986464,-0.7992928678256982,-1.6005060186284878,0.16918815785402036,0.15043666066595365,0.2964685392121575,0,70,255.0,255.0,255.0
113,5.65,-7.2651796326369595,-3.769436727924342,-7.536043025913937,-0.8971751057406754,-0.7916287699456649,-1.5853850323186574,0.1753324484648195,0.15612725453538218,0.3083709131810644,0,70,255.0,255.0,255.0
114,5.7,-7.309816662242325,-3.808820636272677,-7.614921854565905,-0.8882548760521645,-0.7836801423721601,-1.5696689273103817,0.18147673907561865,0.1618178484048107,0.3202732871499713,0,70,255.0,255.0,255.0
115,5.75,-7.354,-3.8478,-7.693,-0.8790274318331137,-0.775446985105184,-1.55335770360366,0.18762102968641337,0.16750844227423833,0.3321756611188835,0,70,255.0,255.0,255.0
116,5.800000000000001,-7.397714495698303,-3.886361146842775,-7.770248194111858,-0.8695054039741152,-0.7669625514129635,-1.5364806310320596,0.19326008467351954,0.171868905414576,0.3429072417451271,0,70,255.0,255.0,255.0
117,5.8500000000000005,-7.440945841184923,-3.9244926214220133,-7.846639120119351,-0.8597014233657616,-0.7582600945637263,-1.5190669794291471,0.19889913966062564,0.17622936855491358,0.3536388223713705,0,70,255.0,255.0,255.0
118,5.9,-7.48367993882239,-3.962183522579864,-7.9221459490709165,-0.8496154900080527,-0.7493396145574722,-1.5011167487949229,0.20453819464773174,0.18058983169525117,0.3643704029976139,0,70,255.0,255.0,255.0
119,5.95,-7.525902690973239,-3.9994229491584767,-7.996741852014987,-0.8392476039009886,-0.7402011113942012,-1.4826299391293858,0.2101772496348378,0.18495029483558875,0.3751019836238573,0,70,255.0,255.0,255.0
120,6.0,-7.5676,-4.0362,-8.0704,-0.8285977650445692,-0.7308445850739133,-1.4636065504325373,0.2158163046219448,0.189310757975929,0.38583356425009896,0,70,255.0,255.0,255.0
121,6.050000000000001,-7.608757676417518,-4.072503229325572,-8.143094480856512,-0.8176604625774526,-0.721237358335886,-1.4441015896318794,0.22167579406271107,0.19497831154515763,0.3943648677762071,0,70,255.0,255.0,255.0
122,6.1000000000000005,-7.6493611633498775,-4.108319012872282,-8.214803049543583,-0.8064301856382979,-0.7113467539193974,-1.4241700636549162,0.22753528350347724,0.20064586511438615,0.40289617130231514,0,70,255.0,255.0,255.0
123,6.15,-7.68939581207348,-4.143633181756204,-8.285504377802399,-0.794906934227105,-0.7011727718244474,-1.403811972501648,0.23339477294424343,0.2063134186836147,0.4114274748284232,0,70,255.0,255.0,255.0
124,6.2,-7.728846973864722,-4.178431567093418,-8.355177137374143,-0.7830907083438736,-0.690715412051036,-1.383027316172074,0.2392542623850096,0.2119809722528432,0.41995877835453116,0,70,255.0,255.0,255.0
125,6.25,-7.7677,-4.2127,-8.4238,-0.7709815079886041,-0.6799746745991632,-1.361816094666195,0.245113751825774,0.2176485258220735,0.4284900818806463,0,70,255.0,255.0,255.0
126,6.300000000000001,-7.805939598631627,-4.246424335854939,-8.491349082462099,-0.7585407457160694,-0.6689520152434911,-1.3400250104404285,0.25251673907560346,0.22325784840480328,0.4431532871499984,0,70,255.0,255.0,255.0
127,6.3500000000000005,-7.843547905415566,-4.279590527088864,-8.55779028170632,-0.7457298340810437,-0.6576488897586826,-1.317500765951195,0.25991972632543275,0.22886717098753298,0.4578164924193503,0,70,255.0,255.0,255.0
128,6.4,-7.88050641288369,-4.312184550395321,-8.623086939719492,-0.7325487730835263,-0.6460652981447379,-1.2942433611984936,0.2673227135752621,0.23447649357026265,0.4724796976887022,0,70,255.0,255.0,255.0
129,6.45,-7.916796613567876,-4.344192382467852,-8.687202398488445,-0.7189975627235176,-0.6342012404016565,-1.270252796182325,0.2747257008250914,0.24008581615299235,0.487142902958054,0,70,255.0,255.0,255.0
130,6.5,-7.9524,-4.3756,-8.7501,-0.7050762030010173,-0.6220567165294388,-1.2455290709026885,0.28212868807492253,0.2456951387357229,0.5018061082274059,0,70,255.0,255.0,255.0
131,6.550000000000001,-7.987300729055974,-4.4063938272546785,-8.811748389295103,-0.6909445545582725,-0.6096585806901555,-1.2203903686064064,0.28313724963485626,0.2502302948356008,0.5037419836238612,0,70,255.0,255.0,255.0
132,6.6000000000000005,-8.021493614987861,-4.436562078772266,-8.872137423631143,-0.6767624780375314,-0.5970336870458787,-1.195154872540302,0.28414581119478993,0.2547654509354786,0.5056778590203166,0,70,255.0,255.0,255.0
133,6.65,-8.05497613639176,-4.466093416662516,-8.931262263319635,-0.6625299734387937,-0.5841820355966078,-1.1698225827043751,0.2851543727547236,0.2593006070353564,0.5076137344167719,0,70,255.0,255.0,255.0
134,6.7,-8.087745771863773,-4.4949765030351765,-8.989118068672084,-0.6482470407620592,-0.5711036263423431,-1.144393499098625,0.28616293431465734,0.2638357631352342,0.5095496098132273,0,70,255.0,255.0,255.0
135,6.75,-8.1198,-4.5232,-9.0457,-0.6339136800073281,-0.5577984592830845,-1.1188676217230522,0.2871714958745928,0.2683709192351138,0.5114854852096844,0,70,255.0,255.0,255.0
136,6.800000000000001,-8.151127085144477,-4.550750755126353,-9.100989360357499,-0.6189770360508381,-0.5441576619958853,-1.092413515133947,0.31029426238499747,0.2772609722528459,0.5466787783545116,0,70,255.0,255.0,255.0
137,6.8500000000000005,-8.18167843463299,-4.577608357822075,-9.154912023769109,-0.6028842537688281,-0.5300723620577998,-1.064199743887601,0.3334170288954017,0.2861510252705778,0.5818720714993383,0,70,255.0,255.0,255.0
138,6.9,-8.211396241549268,-4.603750582954619,-9.20738000700197,-0.585635333161298,-0.5155425594688275,-1.0342263079840133,0.356539795405806,0.2950410782883097,0.617065364644165,0,70,255.0,255.0,255.0
139,6.95,-8.24022269897703,-4.6291552053914415,-9.258305326823221,-0.5672302742282477,-0.5005682542289689,-1.0024932074231845,0.3796625619162103,0.30393113130604166,0.6522586577889915,0,70,255.0,255.0,255.0
140,7.0,-8.2681,-4.6538,-9.3076,-0.5476690769696771,-0.48514944633822366,-0.9690004422051145,0.40278532842661274,0.3128211843237736,0.6874519509338155,0,70,255.0,255.0,255.0
141,7.050000000000001,-8.294966930366119,-4.677661552239911,-9.355174169274912,-0.5267473012383842,-0.4692147713263045,-0.9336355708578167,0.43408570082509523,0.3245658161529832,0.7271429029580742,0,70,255.0,255.0,255.0
142,7.1000000000000005,-8.320748646480173,-4.70071168993944,-9.400930481292429,-0.5042605068871674,-0.45269286472292514,-0.8962861519093067,0.4653860732235772,0.33631044798219256,0.766833854982332,0,70,255.0,255.0,255.0
143,7.15,-8.34536689741117,-4.722921051519013,-9.444769708672489,-0.4802086939160266,-0.4355837265280854,-0.8569521853595838,0.49668644562205916,0.34805507981140194,0.8065248070065899,0,70,255.0,255.0,255.0
144,7.2,-8.368743432228111,-4.744260275399057,-9.486592624035033,-0.4545918623249617,-0.4178873567417851,-0.815633671208648,0.5279868180205411,0.3597997116406113,0.8462157590308479,0,70,255.0,255.0,255.0
145,7.25,-8.3908,-4.7647,-9.5263,-0.4274100121139726,-0.39960375536402437,-0.7723306094564993,0.5592871904190244,0.37154434346982157,0.8859067110551075,0,70,255.0,255.0,255.0
146,7.300000000000001,-8.411485193391053,-4.7842174359140035,-9.563824362542858,-0.4002737589956292,-0.3811272526988973,-0.7289482014347897,0.5261629343146957,0.36751576313524936,0.8493896098132563,0,70,255.0,255.0,255.0
147,7.3500000000000005,-8.430854979446316,-4.802816082420169,-9.599225251061181,-0.3747937186825028,-0.36285217905049927,-0.6873916484751732,0.49303867821036756,0.36348718280067727,0.8128725085714057,0,70,255.0,255.0,255.0
148,7.4,-8.448992168806056,-4.820506010969332,-9.632593958308078,-0.35096989117459265,-0.3447785344188297,-0.6476609505776494,0.4599144221060394,0.3594586024661051,0.7763554073295551,0,70,255.0,255.0,255.0
149,7.45,-8.46597957211053,-4.83729729301233,-9.664021777036648,-0.32880227647189897,-0.3269063188038889,-0.609756107742218,0.42679016600171127,0.355430022131533,0.7398383060877045,0,70,255.0,255.0,255.0
150,7.5,-8.4819,-4.8532,-9.6936,-0.3082908745744217,-0.3092355322056765,-0.5736771199688792,0.3936659098973845,0.3514014417969622,0.7033212048458557,0,70,255.0,255.0,255.0
151,7.550000000000001,-8.496829096069675,-4.868223104104076,-9.72141238055366,-0.2890056627790823,-0.2917002178781013,-0.5389716234030085,0.37774256191618016,0.3500111313060361,0.684898657788948,0,70,255.0,255.0,255.0
152,7.6000000000000005,-8.51081383573456,-4.882371180379886,-9.747512514462848,-0.2705166183828035,-0.27423441907507273,-0.505187254189984,0.36181921393497607,0.34862082081511003,0.6664761107320405,0,70,255.0,255.0,255.0
153,7.65,-8.523894027364607,-4.895647704603658,-9.771946458095206,-0.25282374138558483,-0.2568381357965904,-0.47232401232980475,0.34589586595377203,0.34723051032418395,0.6480535636751331,0,70,255.0,255.0,255.0
154,7.7,-8.536109479329767,-4.908056152551621,-9.794760267818377,-0.2359270317874264,-0.23951136804265447,-0.4403818978224709,0.329972517972568,0.34584019983325787,0.6296310166182256,0,70,255.0,255.0,255.0
155,7.75,-8.5475,-4.9196,-9.816,-0.21982648958832823,-0.22225411581326476,-0.40936091066798236,0.31404916999136434,0.3444498893423318,0.6112084695613205,0,70,255.0,255.0,255.0
156,7.800000000000001,-8.558107222330248,-4.930282947669694,-9.835714115242501,-0.2046315898880312,-0.20507987578869122,-0.3794053049531771,0.29374681802050784,0.34251971164060047,0.5870157590308727,0,70,255.0,255.0,255.0
157,7.8500000000000005,-8.567980077615445,-4.940109596060288,-9.853960691087428,-0.19045180778627727,-0.18800214464920453,-0.3506593347648948,0.27344446604965167,0.34058953393886915,0.5628230485004252,0,70,255.0,255.0,255.0
158,7.9,-8.577169321735518,-4.949084770616033,-9.870800209311101,-0.17728714328306616,-0.17102092239480443,-0.32312300010313477,0.2531421140787955,0.33865935623713783,0.5386303379699778,0,70,255.0,255.0,255.0
159,7.95,-8.585725710570394,-4.957213296781186,-9.886293151689848,-0.1651375963783978,-0.15413620902549088,-0.29679630096789716,0.23283976210793933,0.3367291785354065,0.5144376274395304,0,70,255.0,255.0,255.0
160,8.0,-8.5937,-4.9645,-9.9005,-0.15400316707227227,-0.13734800454126392,-0.2716792373591819,0.21253741013708383,0.334799000833675,0.490244916909083,0,70,255.0,255.0,255.0
161,8.05,-8.601142814609334,-4.970949105217148,-9.913479958476332,-0.1438759776688014,-0.1206202789671335,-0.24769515678426232,0.19255016600174577,0.3343100221315319,0.4691183060876875,0,70,255.0,255.0,255.0
162,8.1,-8.60810425380366,-4.976562435378965,-9.925287121187443,-0.13474815047209773,-0.10391700232811085,-0.22476740675041332,0.1725629218664084,0.33382104342938884,0.4479916952662928,0,70,255.0,255.0,255.0
163,8.15,-8.614634285693322,-4.98134121293221,-9.93597430466039,-0.12661968548216063,-0.08723817462419474,-0.20289598725763322,0.1525756777310703,0.3333320647272458,0.42686508444489735,0,70,255.0,255.0,255.0
164,8.200000000000001,-8.620782878388656,-4.985286660323636,-9.945594325422224,-0.11949058269899047,-0.0705837958553858,-0.18208089830592297,0.13258843359573225,0.3328430860251027,0.40573847362350185,0,70,255.0,255.0,255.0
165,8.25,-8.6266,-4.9884,-9.9542,-0.11336084212258742,-0.0539538660216846,-0.16232213989528319,0.11260118946039521,0.3323541073229598,0.38461186280210713,0,70,255.0,255.0,255.0
166,8.3,-8.632135119232425,-4.990683031461718,-9.961845250852171,-0.10820049943676316,-0.037383008342778454,-0.14368606790977512,0.09381251797257228,0.33048019983327676,0.36083101661820516,0,70,255.0,255.0,255.0
167,8.35,-8.637435707169915,-4.992139862423853,-9.968588424162798,-0.10397959032533019,-0.02090584603835704,-0.12623903823346275,0.07502384648475002,0.3286062923435938,0.33705017043430396,0,70,255.0,255.0,255.0
168,8.4,-8.642548735491197,-4.992775177655129,-9.97448897204734,-0.10069811478828822,-0.0045223791084192,-0.10998105086634488,0.056235174996927095,0.3267323848539107,0.313269324250402,0,70,255.0,255.0,255.0
169,8.450000000000001,-8.647521175874985,-4.9925936619242695,-9.979606346621253,-0.0983560728256374,0.011767392447034494,-0.09491210580842212,0.03744650350910417,0.3248584773642277,0.28948847806649997,0,70,255.0,255.0,255.0
170,8.5,-8.6524,-4.9916,-9.984,-0.09695346443737779,0.02796346862800346,-0.08103220305969494,0.01865783202128246,0.3229845698745447,0.26570763188259927,0,70,255.0,255.0,255.0
171,8.55,-8.657232708460974,-4.989798768935981,-9.987727838114983,-0.09652202458414723,0.044072312338252505,-0.06824857157664035,-0.0014002378920600494,0.3213691785354079,0.24563762743957704,0,70,255.0,255.0,255.0
172,8.6,-8.662068917516676,-4.987194114925623,-9.990841582161366,-0.09709348822658376,0.060100386481544144,-0.056468440315737285,-0.021458307805401845,0.31975378719627123,0.22556762299655553,0,70,255.0,255.0,255.0
173,8.65,-8.666958772341895,-4.983790076447276,-9.99339140715026,-0.09866785536468743,0.07604769105787951,-0.045691809276984914,-0.041516377718744356,0.31813839585713444,0.20549761855353332,0,70,255.0,255.0,255.0
174,8.700000000000001,-8.671952418111406,-4.979590691979285,-9.995427488092767,-0.10124512599845825,0.09191422606725803,-0.035918678460383664,-0.06157444763208686,0.3165230045179977,0.1854276141105111,0,70,255.0,255.0,255.0
175,8.75,-8.6771,-4.9746,-9.997,-0.10482530012789606,0.10769999150967917,-0.02714904786593383,-0.08163251754542777,0.31490761317886096,0.16535760966748972,0,70,255.0,255.0,255.0
176,8.8,-8.682452446923683,-4.9688226927943555,-9.998161796687898,-0.10945540222663923,0.12336575898977802,-0.019543645783659584,-0.10357156640429661,0.3117230860250837,0.13885847362347573,0,70,255.0,255.0,255.0
177,8.85,-8.688063822763377,-4.962266077873649,-9.998976447191735,-0.11518245676832564,0.13887230011218743,-0.01326320050358626,-0.12551061526316468,0.3085385588713065,0.11235933757946265,0,70,255.0,255.0,255.0
178,8.9,-8.693988975141233,-4.954938116555765,-9.999510199351626,-0.12200646375295571,0.15421961487690855,-0.008307712025713409,-0.1474496641220335,0.30535403171752923,0.08586020153544865,0,70,255.0,255.0,255.0
179,8.950000000000001,-8.70028275167939,-4.946846770158587,-9.999829301007678,-0.12992742318052922,0.16940770328394078,-0.004677180350041275,-0.16938871298090236,0.3021695045637519,0.05936106549143465,0,70,255.0,255.0,255.0
180,9.0,-8.707,-4.938,-10.0,-0.13894533505104584,0.18443656533328365,-0.0023716054765699187,-0.19132776183976974,0.29898497740997443,0.0328619294474216,0,70,255.0,255.0,255.0
181,9.05,-8.714187103844292,-4.928407259886591,-10.000080975133427,-0.14855236650931197,0.19921665170263866,-0.000936845288721755,-0.19295349649086985,0.29221847736421824,0.024528478066504128,0,70,255.0,255.0,255.0
182,9.1,-8.721856591429807,-4.918083973579774,-10.000100629071689,-0.15824068470013275,0.21365841306970537,8.12423300805004e-05,-0.19457923114196987,0.2854519773184623,0.01619502668558696,0,70,255.0,255.0,255.0
183,9.15,-8.73001252709318,-4.90704705732966,-10.000079795443238,-0.1680102896235089,0.22776184943448477,0.0006826573798369199,-0.19620496579306998,0.2786854772727061,0.00786157530466949,0,70,255.0,255.0,255.0
184,9.200000000000001,-8.738658975171035,-4.8953134273863625,-10.000039307876524,-0.17786118127944003,0.2415269607969764,0.0008673998605474606,-0.19783070044417006,0.2719189772269499,-0.00047187607624797623,0,70,255.0,255.0,255.0
185,9.25,-8.7478,-4.8829,-10.0,-0.1877933596679258,0.2549537471571797,0.0006354697722121376,-0.19945643509526945,0.26515247718119417,-0.008805327457165148,0,70,255.0,255.0,255.0
186,9.3,-8.757437537699156,-4.869819467659274,-9.999978302778391,-0.19767913173610965,0.26829563419966035,0.0002510269385458962,-0.19597444763207975,0.26852300451802436,-0.006572385889484288,0,70,255.0,255.0,255.0
187,9.35,-8.76756501151739,-4.856067627807254,-9.999973036521505,-0.2073908044311337,0.28180604760898204,-2.1768816736292772e-05,-0.19249246016889018,0.2718935318548545,-0.004339444321803507,0,70,255.0,255.0,255.0
188,9.4,-8.778173716486052,-4.841636054125595,-9.999978618875424,-0.2169283777529986,0.2954849873851457,-0.00018291749363444896,-0.1890104727057005,0.2752640591916847,-0.0021065027541226477,0,70,255.0,255.0,255.0
189,9.450000000000001,-8.789254947636472,-4.826516320295958,-9.99998946748623,-0.22629185170170404,0.3093324535281509,-0.00023241909214856047,-0.1855284852425108,0.2786345865285149,0.00012643881355821167,0,70,255.0,255.0,255.0
190,9.5,-8.8008,-4.8107,-10.0,-0.23548122627724966,0.3233484460379972,-0.00017027361227863177,-0.18204649777932236,0.28200511386534544,0.002359380381238992,0,70,255.0,255.0,255.0
191,9.55,-8.81280034535909,-4.79418046947631,-10.000005813753008,-0.2445071065462557,0.3374248114987247,-6.726246546182998e-05,-0.17898871298091373,0.28104950456374983,0.0017610654914330206,0,70,255.0,255.0,255.0
192,9.600000000000001,-8.825248162500628,-4.776958315191211,-10.000007224842287,-0.2533800975753413,0.35145339649437257,5.83293686467281e-06,-0.17593092818250514,0.2800938952621543,0.0011627506016270493,0,70,255.0,255.0,255.0
193,9.65,-8.838135806962624,-4.759035926167958,-10.000005729055063,-0.2621001993645061,0.36543420102494006,4.9012594700875565e-05,-0.17287314338409662,0.27913828596055873,0.0005644357118210991,0,70,255.0,255.0,255.0
194,9.700000000000001,-8.851455634283079,-4.740415691429802,-10.00000282217856,-0.27066741191375093,0.37936722509042836,6.227650804678148e-05,-0.16981535858568803,0.2781826766589631,-3.387917798487218e-05,0,70,255.0,255.0,255.0
195,9.75,-8.8652,-4.7211,-10.0,-0.2790817352230749,0.39325246869083624,4.562467690238948e-05,-0.1667575737872804,0.27722706735736624,-0.0006321940677908224,0,70,255.0,255.0,255.0
196,9.8,-8.879361080864495,-4.701089854435482,-9.999998442209575,-0.2873324420788607,0.4071731198054439,1.802292330142363e-05,-0.16327070044414796,0.27959897722693206,-0.0004718760762477962,0,70,255.0,255.0,255.0
197,9.850000000000001,-8.8939303384801,-4.680380711427897,-9.999998064109343,-0.2954088052674899,0.4212123664135298,-1.5629307223908025e-06,-0.1597838271010155,0.28197088709649787,-0.00031155808470477,0,70,255.0,255.0,255.0
198,9.9,-8.908899055663456,-4.658966641202571,-9.999998464904321,-0.3033108247889622,0.4353702085150936,-1.3132885169053543e-05,-0.15629695375788316,0.28434279696606357,-0.0001512400931617495,0,70,255.0,255.0,255.0
199,9.950000000000001,-8.92425851523121,-4.63684171398483,-9.999999243799534,-0.31103850064327815,0.4496466461101361,-1.6686940038565417e-05,-0.15281008041475072,0.2867147068356294,9.077898381276727e-06,0,70,255.0,255.0,255.0
200,10.0,-8.94,-4.614,-10.0,-0.3185918328304373,0.4640416791986564,-1.222509533092616e-05,-0.14932320707161972,0.2890866167051942,0.0001693958899242973,0,70,255.0,255.0,255.0
201,10.05,-8.956115331182932,-4.59043691278176,-10.000000417408685,-0.3260031251382921,0.47847470927949964,-4.829227743864525e-06,-0.14712848524256691,0.2882345865285269,0.00012643881355816388,0,70,255.0,255.0,255.0
202,10.100000000000001,-8.972598483578972,-4.566153239097196,-10.000000518720338,-0.33330468135469415,0.4928651378515095,4.1878602489040636e-07,-0.1449337634135141,0.2873825563518596,8.348173719203044e-05,0,70,255.0,255.0,255.0
203,10.15,-8.989443970383544,-4.541151109021755,-10.000000411327647,-0.3404965014796434,0.5072129649146855,3.5189459753385666e-06,-0.14273904158446135,0.2865305261751923,4.052466082589851e-05,0,70,255.0,255.0,255.0
204,10.200000000000001,-9.006646304792078,-4.515432652630875,-10.000000202623303,-0.34757858551314025,0.5215181904690286,4.471252107480171e-06,-0.14054431975540854,0.285678495998525,-2.4324155402349185e-06,0,70,255.0,255.0,255.0
205,10.25,-9.0242,-4.489,-10.0,-0.35455093345518424,0.5357808145145379,3.2757044213151527e-06,-0.13834959792635493,0.2848264658218591,-4.538949190636682e-05,0,70,255.0,255.0,255.0
206,10.3,-9.042099194403777,-4.461854494437479,-9.999999888155678,-0.3613910573679849,0.5500480430765586,1.2939876740344715e-06,-0.135255358585666,0.2858626766589625,-3.38791779848593e-05,0,70,255.0,255.0,255.0
207,10.350000000000001,-9.060336527204017,-4.433994332183312,-9.999999861009305,-0.36807646931375104,0.5643670821804345,-1.1221337717082547e-07,-0.13216111924497706,0.2868988874960659,-2.2368864063351776e-05,0,70,255.0,255.0,255.0
208,10.4,-9.078904262802368,-4.405416922710406,-9.999999889785089,-0.3746071692924825,0.5787379318261651,-9.428987323007187e-07,-0.12906687990428825,0.2879350983331692,-1.085855014184466e-05,0,70,255.0,255.0,255.0
209,10.450000000000001,-9.09779466560048,-4.376119675491665,-9.99999994570725,-0.3809831573041798,0.5931605920137514,-1.1980683913552674e-06,-0.1259726405635993,0.2889713091702726,6.517637796628586e-07,0,70,255.0,255.0,255.0
210,10.5,-9.117,-4.3461,-10.0,-0.38720443334884247,0.6076350627431923,-8.777223543344534e-07,-0.12287840122291094,0.2900075200073804,1.216207770116997e-05,0,70,255.0,255.0,255.0
211,10.55,-9.136512691201968,-4.315353909468318,-10.000000029968596,-0.3932806453897826,0.6222451184142678,-3.467229522733636e-07,-0.1201700804146913,0.2943947068356292,9.07789838127332e-06,0,70,255.0,255.0,255.0
212,10.600000000000001,-9.156325807604974,-4.283871832169549,-10.000000037242446,-0.3992214413903118,0.6370745334267557,3.006748379289143e-08,-0.11746175960647164,0.2987818936638779,5.993719061376671e-06,0,70,255.0,255.0,255.0
213,10.65,-9.176432578406994,-4.2516428001366195,-10.000000029531996,-0.4050268213504297,0.6521233077806555,2.5264895386430696e-07,-0.11475343879825209,0.30316908049212654,2.909539741480131e-06,0,70,255.0,255.0,255.0
214,10.700000000000001,-9.196826232806009,-4.21865584540246,-10.000000014547698,-0.410696785270137,0.6673914414759683,3.2102145794089795e-07,-0.11204511799003244,0.3075562673203753,-1.7463957841651764e-07,0,70,255.0,255.0,255.0
215,10.75,-9.2175,-4.1849,-10.0,-0.4162313331494329,0.6828789345126929,2.3518499602266052e-07,-0.10933679718180978,0.3119434541486239,-3.258818898313059e-06,0,70,255.0,255.0,255.0
216,10.8,-9.238450040788354,-4.1503618676892415,-9.99999999196994,-0.42180636107286495,0.6987314832663718,9.290413505898249e-08,-0.11366431975546988,0.3221584959985248,-2.4324155402339825e-06,0,70,255.0,255.0,255.0
217,10.850000000000001,-9.2596842423761,-4.115018339138486,-9.999999990020918,-0.42759776512498004,0.7150947841125459,-8.056558000741143e-09,-0.11799184232912999,0.33237353784842577,-1.6060121821549057e-06,0,70,255.0,255.0,255.0
218,10.9,-9.281213423569664,-4.078843876743112,-9.999999992086925,-0.43360554530577794,0.7319688370512142,-6.769708315650901e-08,-0.12231936490278995,0.34258857969832635,-7.796088240758585e-07,0,70,255.0,255.0,255.0
219,10.950000000000001,-9.303048403175488,-4.041812942898491,-9.999999996101955,-0.439829701615259,0.7493536420823783,-8.601744040832531e-08,-0.12664688747645006,0.35280362154822725,4.6794534003218295e-08,0,70,255.0,255.0,255.0
220,11.0,-9.3252,-4.0039,-10.0,-0.44627023405342287,0.7672491992060368,-6.301762975618868e-08,-0.13097441005010912,0.3630186633981278,8.73197892082265e-07,0,70,255.0,255.0,255.0
221,11.05,-9.347672745644616,-3.9650850197747114,-10.00000000215165,-0.452549910318766,0.7853249485202471,-2.48935879625663e-08,-0.12021264056361336,0.3600113091702713,6.517637796626086e-07,0,70,255.0,255.0,255.0
222,11.100000000000001,-9.370446022890638,-3.9253700112764975,-10.000000002673886,-0.45829149810978437,0.8032503301230645,2.1587482100731e-09,-0.1094508710771176,0.35700395494241477,4.3032966724295216e-07,0,70,255.0,255.0,255.0
223,11.15,-9.393492927314355,-3.8847624928909283,-10.000000002120302,-0.46349499742647776,0.8210253440144883,1.8139378761729168e-08,-0.09868910159062222,0.3539966007145583,2.0889555482330352e-07,0,70,255.0,255.0,255.0
224,11.200000000000001,-9.416786554492049,-3.8432699830035717,-10.000000001044478,-0.46816040826884653,0.8386499901945201,2.3048303692403003e-08,-0.08792733210412645,0.35098924648670177,-1.2538557596352896e-08,0,70,255.0,255.0,255.0
225,11.25,-9.4403,-3.8009,-10.0,-0.4722877306368904,0.8561242686631586,1.6885523002094243e-08,-0.0771655626176293,0.34798189225884446,-2.3397267001600148e-07,0,70,255.0,255.0,255.0
226,11.3,-9.46400937663319,-3.757659653211909,-9.99999999942347,-0.4760579976520808,0.8734727226526394,6.670216791282759e-09,-0.07364511798998347,0.3459562673203786,-1.746395784164521e-07,0,70,255.0,255.0,255.0
227,11.350000000000001,-9.487902866061354,-3.7135544157555165,-9.999999999283535,-0.47965224243588883,0.890719895395197,-5.784348395512149e-10,-0.07012467336233764,0.3439306423819127,-1.1530648681690274e-07,0,70,255.0,255.0,255.0
228,11.4,-9.511971667172922,-3.6685893516931714,-9.999999999431866,-0.4830704649883145,0.9078657868908306,-4.860431890407584e-09,-0.06660422873469193,0.34190501744344687,-5.597339521735548e-08,0,70,255.0,255.0,255.0
229,11.450000000000001,-9.536206978856328,-3.6227695250872163,-9.999999999720133,-0.48631266530935796,0.9249103971395415,-6.175774361286643e-09,-0.06308378410704611,0.339879392504981,3.3596963821938727e-09,0,70,255.0,255.0,255.0
230,11.5,-9.5606,-3.5761,-10.0,-0.4893788433990191,0.9418537261413286,-4.5244622521882995e-09,-0.0595633394794004,0.33785376756651697,6.269278798174116e-08,0,70,255.0,255.0,255.0
231,11.55,-9.585140147822633,-3.5285851673776487,-10.00000000015448,-0.4921620990729155,0.9587361608691976,-1.7872792025647295e-09,-0.05176688747645384,0.3374436215482296,4.679453400320007e-08,0,70,255.0,255.0,255.0
232,11.600000000000001,-9.609809712863958,-3.4802267257014274,-10.000000000191976,-0.4945555321466646,0.975598088296152,1.549911481317748e-10,-0.04397043547350728,0.3370334755299423,3.0896280024658986e-08,0,70,255.0,255.0,255.0
233,11.65,-9.634589203993963,-3.4310257003363827,-10.000000000152232,-0.4965591426202662,0.9924395084221915,1.3023487999011864e-09,-0.036173983470560986,0.3366233295116549,1.4998026046118464e-08,0,70,255.0,255.0,255.0
234,11.700000000000001,-9.659459130082649,-3.380983116647557,-10.00000000007499,-0.49817293049372063,1.0092604212473173,1.6547937527435887e-09,-0.028377531467614424,0.33621318349336754,-9.002279324226209e-10,0,70,255.0,255.0,255.0
235,11.75,-9.6844,-3.3301,-10.0,-0.49939689576702767,1.0260608267715283,1.2123260066589535e-09,-0.020581079464669028,0.335803037475074,-1.679848191096314e-08,0,70,255.0,255.0,255.0
236,11.8,-9.709393232076282,-3.27837807727749,-9.999999999958607,-0.5002856060562475,1.0427986338705726,4.789000189761603e-10,-0.014967332104125762,0.3337092464866877,-1.2538557596348172e-08,0,70,255.0,255.0,255.0
237,11.850000000000001,-9.734423882482826,-3.2258218814387645,-9.99999999994856,-0.5008936289774403,1.0594317514201976,-4.15297529758816e-11,-0.009353584743582496,0.33161545549830146,-8.278633281733205e-09,0,70,255.0,255.0,255.0
238,11.9,-9.759477916851226,-3.1724366469612946,-9.99999999995921,-0.5012209645306057,1.0759601794204026,-3.489633091971648e-10,-0.0037398373830394294,0.32952166450991527,-4.018708967118389e-09,0,70,255.0,255.0,255.0
239,11.950000000000001,-9.784541300813085,-3.118227608322549,-9.999999999979906,-0.5012676127157442,1.092383917871189,-4.4340064968771155e-10,0.0018739099775038383,0.32742787352152897,2.412153474965779e-10,0,70,255.0,255.0,255.0
240,12.0,-9.8096,-3.0632,-10.0,-0.5010335735328554,1.1087029667725554,-3.2484177444751447e-10,0.007487657338048237,0.3253340825331392,4.501139662111396e-09,0,70,255.0,255.0,255.0
241,12.05,-9.83463972387224,-3.0073585235123836,-10.000000000011092,-0.5005034767020814,1.1249493036485088,-1.283208733399115e-10,0.013716215892911787,0.3245193925049918,3.3596963821926113e-09,0,70,255.0,255.0,255.0
242,12.100000000000001,-9.859645157204747,-2.950705748543504,-10.000000000013783,-0.4996619519435642,1.141154906023055,1.1127863771751413e-11,0.019944774447775336,0.32370470247684435,2.218253102273827e-09,0,70,255.0,255.0,255.0
243,12.15,-9.884600728601132,-2.8932437118184353,-10.000000000010928,-0.49850899925730385,1.1573197738961933,9.35044368874724e-11,0.026173333002638667,0.3228900124486969,1.076809822355083e-09,0,70,255.0,255.0,255.0
244,12.200000000000001,-9.909490866665013,-2.834974450062242,-10.000000000005384,-0.4970446186433003,1.1734439072679246,1.1880884600725742e-10,0.03240189155750221,0.3220753224205495,-6.463345756370134e-11,0,70,255.0,255.0,255.0
245,12.25,-9.9343,-2.7759,-10.0,-0.49526881010155366,1.1895273061382479,8.704109113110441e-11,0.038630450112365544,0.32126063239239677,-1.2060767374824452e-09,0,70,255.0,255.0,255.0
246,12.3,-9.959012672434763,-2.716023028672971,-9.999999999997028,-0.493188487135434,1.2055321515353923,3.438347438348566e-11,0.04458246853241947,0.3189331834933714,-9.00227932422275e-10,0,70,255.0,255.0,255.0
247,12.350000000000001,-9.983613888698194,-2.6553487243872085,-9.999999999996307,-0.4908105632483116,1.2214206244875856,-2.9817021111243604e-12,0.050534486952473395,0.31660573459434604,-5.943791273621047e-10,0,70,255.0,255.0,255.0
248,12.4,-10.008088768744244,-2.593882905764962,-9.99999999999707,-0.4881350384401867,1.237192724994827,-2.5054438352725138e-11,0.056486505372527106,0.31427828569532074,-2.8853032230194533e-10,0,70,255.0,255.0,255.0
249,12.450000000000001,-10.032422432526863,-2.5316313914284754,-9.999999999998558,-0.48516191271105896,1.2528484530571173,-3.183473434131823e-11,0.062438523792581024,0.31195083679629537,1.7318482758225015e-11,0,70,255.0,255.0,255.0
250,12.5,-10.0566,-2.4686,-10.0,-0.4818911860609286,1.2683878086744564,-2.3322590076903184e-11,0.06839054221263385,0.30962338789726473,3.2316728781838435e-10,0,70,255.0,255.0,255.0
251,12.55,-10.080606386388713,-2.404793361795728,-10.000000000000796,-0.4783105747561751,1.2838820902099262,-9.21302419403118e-12,0.07483390997750475,0.31014787352151457,2.4121534749648787e-10,0,70,255.0,255.0,255.0
252,12.600000000000001,-10.10442568800248,-2.340211353907652,-10.00000000000099,-0.47440779506317804,1.2994025960266082,7.989446727459414e-13,0.08127727774237564,0.31067235914576447,1.5926340717459137e-10,0,70,255.0,255.0,255.0
253,12.65,-10.128041796421892,-2.2748526651217142,-10.000000000000783,-0.4701828469819376,1.3149493261245024,6.713316523428046e-12,0.0877206455072463,0.3111968447700143,7.731146685269781e-11,0,70,255.0,255.0,255.0
254,12.700000000000001,-10.151438603227536,-2.208715984223849,-10.000000000000385,-0.46563573051245344,1.3305222805036097,8.530091358015553e-12,0.0941640132721172,0.31172133039426414,-4.640473469198665e-12,0,70,255.0,255.0,255.0
255,12.75,-10.1746,-2.1418,-10.0,-0.46076644565472596,1.3461214591639288,6.249269176508324e-12,0.10060738103698741,0.312245816018514,-8.659241379109229e-11,0,70,255.0,255.0,255.0
256,12.8,-10.19750978201039,-2.0741051241441117,-9.999999999999787,-0.4555692138398646,1.3616434876249055,2.468622392639049e-12,0.10728189155746436,0.30863532242054453,-6.463345756367655e-11,0,70,255.0,255.0,255.0
257,12.850000000000001,-10.220151359291888,-2.0056386599821723,-9.999999999999735,-0.4500382564989794,1.3769849914059837,-2.1407657985942425e-13,0.1139564020779413,0.30502482882257514,-4.2674501336260836e-11,0,70,255.0,255.0,255.0
258,12.9,-10.242508045568188,-1.9364096337481789,-9.999999999999789,-0.44417357363207055,1.3921459705071628,-1.7988277409870585e-12,0.12063091259841802,0.30141433522460587,-2.0715545108845893e-11,0,70,255.0,255.0,255.0
259,12.950000000000001,-10.264563154562994,-1.8664270716761215,-9.999999999999895,-0.4379751652391376,1.4071264249284443,-2.285631090743966e-12,0.12730542311889495,0.2978038416266364,1.243411118569838e-12,0,70,255.0,255.0,255.0
260,13.0,-10.2863,-1.7957,-10.0,-0.4314430313201811,1.4219263546698266,-1.6744866291301127e-12,0.13397993363937166,0.29419334802866537,2.3202367345984794e-11,0,70,255.0,255.0,255.0
261,13.05,-10.30770248556973,-1.724235741627819,-10.000000000000057,-0.4246125698843807,1.436647959290451,-6.61465376525019e-13,0.13923852379264046,0.29467083679629874,1.7318482758218375e-11,0,70,255.0,255.0,255.0
262,13.100000000000001,-10.32875687482998,-1.6520348061636465,-10.000000000000071,-0.41751917894091684,1.4513934383494569,5.736164669174962e-14,0.14449711394590928,0.2951483255639321,1.1434598170451958e-11,0,70,255.0,255.0,255.0
263,13.15,-10.34945002130536,-1.5790959998855671,-10.000000000000055,-0.4101628584897898,1.466162791846844,4.81994440520183e-13,0.14975570409917788,0.29562581433156543,5.550713582685751e-12,0,70,255.0,255.0,255.0
264,13.200000000000001,-10.369768778520495,-1.5054181290716562,-10.000000000000028,-0.4025436085309991,1.4809560197826135,6.124330049603123e-13,0.15501429425244667,0.2961033030991988,-3.331710050806682e-13,0,70,255.0,255.0,255.0
265,13.25,-10.3897,-1.431,-10.0,-0.3946614290645452,1.4957731221567636,4.4867734001212656e-13,0.1602728844057153,0.2965807918668162,-6.217055592846876e-12,0,70,255.0,255.0,255.0
266,13.3,-10.409229875710691,-1.3558415093446075,-9.999999999999984,-0.38647650662260014,1.5105486752132908,1.7723911346102744e-13,0.1671240132720831,0.294441330394261,-4.640473469196935e-12,0,70,255.0,255.0,255.0
267,13.350000000000001,-10.428341941388206,-1.2799469153632295,-9.99999999999998,-0.37794902773733663,1.5252172551961902,-1.537000690757354e-14,0.1739751421384509,0.29230186892170584,-3.063891345546995e-12,0,70,255.0,255.0,255.0
268,13.4,-10.44701906921037,-1.2033215667095496,-9.999999999999984,-0.36907899240875514,1.539778862105461,-1.291500210936738e-13,0.18082627100481843,0.2901624074491508,-1.4873092218971102e-12,0,70,255.0,255.0,255.0
269,13.450000000000001,-10.465244131355025,-1.1259708120372443,-9.999999999999991,-0.3598664006368549,1.554233495941105,-1.6410092909728135e-13,0.18767739987118623,0.2880229459765956,8.92729017528306e-14,0,70,255.0,255.0,255.0
270,13.5,-10.483,-1.0479,-10.0,-0.3503112524216366,1.5685811567031207,-1.2022273091839357e-13,0.19452852873755377,0.2858834845040441,1.6658550254027153e-12,0,70,255.0,255.0,255.0
271,13.55,-10.500270011587501,-0.969114220993745,-10.000000000000004,-0.34044140362522524,1.5828373398563882,-4.7491077319090434e-14,0.2002654231188954,0.2843638416266387,1.2434111185693692e-12,0,70,255.0,255.0,255.0
272,13.600000000000001,-10.517039359617204,-0.8896175323834236,-10.000000000000005,-0.33028471010974675,1.597017540865785,4.118380938545104e-15,0.206002317500237,0.2828441987492333,8.209672117360232e-13,0,70,255.0,255.0,255.0
273,13.65,-10.533293701853157,-0.8094137332762317,-10.000000000000004,-0.3198411718752016,1.6111217597313112,3.4605643854512345e-14,0.2117392118815784,0.28132455587182786,3.985233049026921e-13,0,70,255.0,255.0,255.0
274,13.700000000000001,-10.54901869605941,-0.7285066227793574,-10.000000000000002,-0.309110788921589,1.6251499964529676,4.3970711428813447e-14,0.21747610626292002,0.27980491299442245,-2.3920601930653995e-14,0,70,255.0,255.0,255.0
275,13.75,-10.5642,-0.6469,-10.0,-0.29809356124890973,1.6391022510307534,3.221358366144773e-14,0.22321300064426186,0.2782852701170171,-4.4636450876398505e-13,0,70,255.0,255.0,255.0
276,13.8,-10.578822877939302,-0.5645976066804057,-9.999999999999998,-0.28676587887649113,1.6529819653611588,1.2725195815334285e-14,0.22989429425247723,0.2769033030991906,-3.331710050805415e-13,0,70,255.0,255.0,255.0
277,13.850000000000001,-10.592871020142976,-0.4816029551030633,-9.999999999999998,-0.27510413182366167,1.6667925813406728,-1.103516846606897e-15,0.2365755878606926,0.2755213360813641,-2.1997750139709797e-13,0,70,255.0,255.0,255.0
278,13.9,-10.606327723376996,-0.39791950018552047,-9.999999999999998,-0.26310832009042195,1.6805340989692952,-9.272554324375634e-15,0.24325688146890773,0.2741393690635377,-1.0678399771365841e-13,0,70,255.0,255.0,255.0
279,13.950000000000001,-10.619176284407345,-0.3135506968453159,-9.999999999999998,-0.250778443676771,1.6942065182470265,-1.1781916617972501e-14,0.24993817507712313,0.2727574020457112,6.4095059697851334e-15,0,70,255.0,255.0,255.0
280,14.0,-10.6314,-0.2285,-10.0,-0.23811450258270972,1.7078098391738663,-8.631603727397326e-15,0.25661946868533914,0.2713754350278865,1.1960300965322454e-13,0,70,255.0,255.0,255.0
281,14.05,-10.642982476655284,-0.14277055228462532,-10.0,-0.2251350808687982,1.7213627986989786,-3.4097059422467243e-15,0.26255739987111426,0.2707429459765965,8.927290175279654e-14,0,70,255.0,255.0,255.0
282,14.100000000000001,-10.653908559810892,-0.05636424720430912,-10.0,-0.2118587625955979,1.7348841337715262,2.9568644788245528e-16,0.26849533105688933,0.2701104569253065,5.894279385236854e-14,0,70,255.0,255.0,255.0
283,14.15,-10.664163404638856,0.030717334018317295,-10.0,-0.19828554776310936,1.7483738443915091,2.484573442990161e-15,0.27443326224266423,0.2694779678740165,2.861268595194162e-14,0,70,255.0,255.0,255.0
284,14.200000000000001,-10.673732166311215,0.11847261016063182,-10.0,-0.18441543637133156,1.761831930558928,3.1569550430765544e-15,0.2803711934284393,0.26884547882272647,-1.7174219484863872e-15,0,70,255.0,255.0,255.0
285,14.25,-10.6826,0.2069,-10.0,-0.17024842842026552,1.7752583922737815,2.312831248141582e-15,0.28630912461421576,0.26821298977143115,-3.204752984891329e-14,0,70,255.0,255.0,255.0
286,14.3,-10.690752015439559,0.29599741581891426,-10.0,-0.15578179764833533,1.788622839842928,9.1362795365261e-16,0.2923561062629844,0.26636491299442255,-2.3920601930644794e-14,0,70,255.0,255.0,255.0
287,14.350000000000001,-10.698173140613461,0.3857607439203145,-10.0,-0.14101281779396665,1.801894883573224,-7.922894492293135e-17,0.2984030879117531,0.2645168362174139,-1.5793674012376296e-14,0,70,255.0,255.0,255.0
288,14.4,-10.704848258067582,0.4761853641122551,-10.0,-0.1259414888571601,1.8150745234646692,-6.657394475850283e-16,0.30445006956052156,0.26266875944040535,-7.666746094108089e-15,0,70,255.0,255.0,255.0
289,14.450000000000001,-10.710762250347804,0.5672666562027999,-10.0,-0.11056781083791462,1.8281617595172646,-8.459035543337233e-16,0.3104970512092902,0.2608206826633967,4.60181824160409e-16,0,70,255.0,255.0,255.0
290,14.5,-10.7159,0.659,-10.0,-0.09489178373623121,1.8411565917310087,-6.197212651690025e-16,0.3165440328580589,0.2589726058863828,8.587109742428616e-15,0,70,255.0,255.0,255.0
291,14.55,-10.72024626158648,0.7513808890089761,-10.0,-0.07890572853785141,1.8540658419293112,-2.4480587236371613e-16,0.3228981750771236,0.2573974020457104,6.409505969782627e-15,0,70,255.0,255.0,255.0
292,14.600000000000001,-10.723785277735269,0.8444052715230665,-10.0,-0.0626019662285184,1.86689633193558,2.1229331809269298e-17,0.32925231729618837,0.255822198205038,4.231902197136638e-15,0,70,255.0,255.0,255.0
293,14.65,-10.726501163090818,0.9380692095326663,-10.0,-0.045980496808232706,1.8796480617498148,1.7838434734995013e-16,0.33560645951525286,0.2542469943643656,2.054298424490727e-15,0,70,255.0,255.0,255.0
294,14.700000000000001,-10.728378032297575,1.03236876502818,-10.0,-0.02904132027699321,1.8923210313720165,2.266591742583374e-16,0.34196060173431764,0.2526717905236932,-1.2330534815526305e-16,0,70,255.0,255.0,255.0
295,14.75,-10.7294,1.1273,-10.0,-0.01178443663480108,1.904915240802184,1.6605381253442785e-16,0.34831474395338224,0.2510965866830315,-2.3009091208011738e-15,0,70,255.0,255.0,255.0
296,14.8,-10.729550938214517,1.2228590281451892,-10.0,0.005804711799743775,1.9174337924398284,6.559553580225421e-17,0.35525119342840195,0.24964547882272858,-1.7174219484857149e-15,0,70,255.0,255.0,255.0
297,14.850000000000001,-10.728813748445463,1.3190421699874355,-10.0,0.02374068270803962,1.9298797886844574,-5.688382314146079e-18,0.36218764290342165,0.2481943709624257,-1.133934776170256e-15,0,70,255.0,255.0,255.0
298,14.9,-10.72717108956915,1.415845797757084,-10.0,0.0420234760900858,1.9422532295360708,-4.7797941814772056e-17,0.3691240923784411,0.24674326310212286,-5.504476038548181e-16,0,70,255.0,255.0,255.0
299,14.950000000000001,-10.724605620461894,1.5132662836844912,-10.0,0.060653091945883614,1.9545541149946695,-6.073314269962665e-17,0.37606054185346083,0.24529215524181996,3.303956846064081e-17,0,70,255.0,255.0,255.0
300,15.0,-10.7211,1.6113,-10.0,0.07962953027543174,1.9667824450602527,-4.449398496870898e-17,0.3829969913284801,0.24384104738151002,6.16526740776079e-16,0,70,255.0,255.0,255.0
301,15.05,-10.716637985555451,1.709943798410275,-10.0,0.09888688133887691,1.9789669883113754,-1.7576270845300816e-17,0.38729705120931585,0.24354068266338835,4.601818241602325e-16,0,70,255.0,255.0,255.0
302,15.100000000000001,-10.711207728482877,1.8091964485272085,-10.0,0.11835923539636388,1.991136513326592,1.5241974473149141e-18,0.39159711109015155,0.24324031794526668,3.0383690754438594e-16,0,70,255.0,255.0,255.0
303,15.15,-10.704798478632581,1.9090571994390015,-10.0,0.1380465924478919,2.003291020105902,1.2807419909137954e-17,0.39589717097098714,0.242939953227145,1.47491990928545e-16,0,70,255.0,255.0,255.0
304,15.200000000000001,-10.697399485854856,2.009525300233866,-10.0,0.15794895249346244,2.015430508649306,1.6273396540169094e-17,0.4001972308518229,0.24263958850902334,-8.852925687301574e-18,0,70,255.0,255.0,255.0
305,15.25,-10.689,2.1106,-10.0,0.17806631553307403,2.0275549789568044,1.1922127340408085e-17,0.4044972907326587,0.24233922379090345,-1.6519784230314252e-16,0,70,255.0,255.0,255.0
306,15.3,-10.679587519563679,2.2122793782137187,-10.0,0.19850376284474885,2.03959425431467,4.70954757894904e-18,0.4130006017343229,0.23923179052369997,-1.2330534815521522e-16,0,70,255.0,255.0,255.0
307,15.350000000000001,-10.669142537623024,2.3145568359037467,-10.0,0.2193663757065069,2.0514781580091745,-4.084074751136104e-19,0.42150391273598703,0.23612435725649653,-8.141285400728791e-17,0,70,255.0,255.0,255.0
308,15.4,-10.657643795900528,2.417424604486913,-10.0,0.2406541541183474,2.063206690040319,-3.431737821779797e-18,0.4300072237376509,0.23301692398929316,-3.9520359859362083e-17,0,70,255.0,255.0,255.0
309,15.450000000000001,-10.645070036118687,2.520874915380056,-10.0,0.26236709808027187,2.074779850408104,-4.360443461049734e-18,0.43851053473931506,0.22990949072208972,2.372134288565213e-18,0,70,255.0,255.0,255.0
310,15.5,-10.6314,2.6249,-10.0,0.28450520759227876,2.0861976391125285,-3.1945243929233547e-18,0.44701384574097824,0.2268020574548899,4.4264628436490993e-17,0,70,255.0,255.0,255.0
311,15.55,-10.616614336189828,2.7294938887348574,-10.0,0.3069540672821399,2.0975679944299466,-1.261919470495344e-18,0.4509405418534562,0.22801215524182228,3.303956846062834e-17,0,70,255.0,255.0,255.0
312,15.600000000000001,-10.600701321025024,2.8346578078578197,-10.0,0.329599261777625,2.1089988546367113,1.0943245313952608e-19,0.4548672379659342,0.22922225302875465,2.181450848476569e-17,0,70,255.0,255.0,255.0
313,15.65,-10.583651137765306,2.94039478261335,-10.0,0.3524407910787332,2.120490219732822,9.195313779812374e-19,0.45879393407841207,0.23043235081568697,1.0589448508903434e-17,0,70,255.0,255.0,255.0
314,15.700000000000001,-10.565453969670392,3.0467078382459234,-10.0,0.3754786551854661,2.1320420897182797,1.1683773040298467e-18,0.46272063019089005,0.23164244860261934,-6.35611466959217e-19,0,70,255.0,255.0,255.0
315,15.75,-10.5461,3.1536,-10.0,0.39871285409782203,2.1436544645930833,8.559702312853354e-19,0.46664732630336614,0.23285254638955522,-1.186067144282147e-17,0,70,255.0,255.0,255.0
316,15.8,-10.525576735677,3.261071466846859,-10.0,0.42230396802670106,2.1551577679655476,3.3813030303233744e-19,0.47699723085177975,0.22727958850902105,-8.852925687298156e-18,0,70,255.0,255.0,255.0
317,15.850000000000001,-10.503860978276872,3.3691111326649907,-10.0,0.4464125771830007,2.1663824234439857,-2.932233744449268e-20,0.4873471354001934,0.2217066306284869,-5.84517993177484e-18,0,70,255.0,255.0,255.0
318,15.9,-10.480926853038243,3.47770506505969,-10.0,0.4710386815667202,2.1773284310283967,-2.4638769014514993e-19,0.4976970399486067,0.2161336727479529,-2.8374341762516318e-18,0,70,255.0,255.0,255.0
319,15.950000000000001,-10.456748485199743,3.5868393316362623,-10.0,0.4961822811778612,2.187995790718781,-3.130657550696495e-19,0.5080469444970204,0.21056071486741873,1.7031157927168437e-19,0,70,255.0,255.0,255.0
320,16.0,-10.4313,3.6965,-10.0,0.5218433760164221,2.1983845025151387,-2.2935653221798693e-19,0.518396849045434,0.2049877569868812,3.178057334794892e-18,0,70,255.0,255.0,255.0
321,16.05,-10.404553921102167,3.8066674438777155,-10.0,0.5481180606110425,2.208152933707863,-9.06017416340056e-20,0.5325905347393688,0.18574949072208938,2.3721342885642824e-18,0,70,255.0,255.0,255.0
322,16.1,-10.376476365867484,3.9172992614822353,-10.0,0.5751024294903597,2.2169594515873476,7.856896638444673e-21,0.5467842204333035,0.16651122445729757,1.5662112423336732e-18,0,70,255.0,255.0,255.0
323,16.150000000000002,-10.347031850081718,4.028347357147898,-10.0,0.6027964826543737,2.224804056153593,6.601938259936399e-20,0.5609779061272383,0.14727295819250574,7.60288196103064e-19,0,70,255.0,255.0,255.0
324,16.2,-10.316184889530636,4.139763635209036,-10.0,0.6312002201030823,2.2316867474065982,8.38857162487523e-20,0.5751715918211721,0.12803469192771527,-4.5634850127488073e-20,0,70,255.0,255.0,255.0
325,16.25,-10.2839,4.2515,-10.0,0.6603136418364897,2.2376075253463643,6.145589758661238e-20,0.5893652775151068,0.10879642566291636,-8.515578963580975e-19,0,70,255.0,255.0,255.0
326,16.3,-10.25014837991433,4.36351315764229,-10.0,0.6897357895291395,2.2428544972030027,2.427666350368503e-20,0.5875206301908712,0.10108244860262221,-6.356114669589753e-19,0,70,255.0,255.0,255.0
327,16.35,-10.21492795825319,4.475779021406086,-10.0,0.7190657048555775,2.247715770206627,-2.1052491092860563e-21,0.5856759828666355,0.09336847154232807,-4.1966503755985326e-19,0,70,255.0,255.0,255.0
328,16.400000000000002,-10.178243346634877,4.588278306348738,-10.0,0.7483033878158039,2.252191344357236,-1.76898402523009e-20,0.5838313355423999,0.08565449448203391,-2.0371860816073118e-19,0,70,255.0,255.0,255.0
329,16.45,-10.140099156677714,4.7009917275275885,-10.0,0.7774488384098164,2.25628121965483,-2.2477109925359512e-20,0.5819866882181642,0.07794051742174031,1.2227821238375682e-20,0,70,255.0,255.0,255.0
330,16.5,-10.1005,4.8139,-10.0,0.8065020566376192,2.25998539609941,-1.6467058128462572e-20,0.5801420408939313,0.07022654036144971,2.2817425063749795e-19,0,70,255.0,255.0,255.0
331,16.55,-10.0594493592405,4.926982325553135,-10.0,0.8355307812723934,2.2632130774801316,-6.504912380734514e-21,0.5810069444970216,0.058880714867398445,1.703115792716187e-19,0,70,255.0,255.0,255.0
332,16.6,-10.016946201119756,5.040211852893438,-10.0,0.8646027510873222,2.26587346758615,5.640997986995385e-22,0.5818718481001118,0.04753488937334718,1.1244890790573943e-19,0,70,255.0,255.0,255.0
333,16.650000000000002,-9.972988363378763,5.153560217457175,-10.0,0.8937179660824054,2.267966566417466,4.7399784098395894e-21,0.5827367517032022,0.03618906387929593,5.45862365398602e-20,0,70,255.0,255.0,255.0
334,16.7,-9.927573683758515,5.2669990546806025,-10.0,0.9228764262576411,2.2694923739740793,6.022723452685654e-21,0.5836016553062924,0.024843238385245478,-3.2764348260149443e-21,0,70,255.0,255.0,255.0
335,16.75,-9.8807,5.3805,-10.0,0.9520781316130336,2.2704508902559906,4.4123349272379004e-21,0.5844665589093836,0.013497412891194216,-6.113910619189416e-20,0,70,255.0,255.0,255.0
336,16.8,-9.832364583123663,5.494035140145179,-10.0,0.981357085381298,2.270869192876464,1.7429860192530245e-21,0.5866915918211788,0.003234691927737853,-4.5634850127499364e-20,0,70,255.0,255.0,255.0
337,16.85,-9.782562437267774,5.60757836702018,-10.0,1.0107472907951522,2.270774359448764,-1.511500855121007e-22,0.5889166247329741,-0.00702802903571851,-3.013059406310457e-20,0,70,255.0,255.0,255.0
338,16.900000000000002,-9.731287999850053,5.72110402382259,-10.0,1.0402487478545963,2.2701663899728923,-1.2700733870574756e-21,0.5911416576447693,-0.017290749999174876,-1.4626337998709787e-20,0,70,255.0,255.0,255.0
339,16.95,-9.678535708288225,5.834586453749995,-10.0,1.0698614565596278,2.269045284448847,-1.6137838853831042e-21,0.5933666905565644,-0.027553470962630507,8.779180656839026e-22,0,70,255.0,255.0,255.0
340,17.0,-9.6243,5.948,-10.0,1.0995854169102517,2.267411042876629,-1.1822815804890318e-21,0.5955917234683579,-0.03781619192609398,1.638217413007869e-20,0,70,255.0,255.0,255.0
341,17.05,-9.56857630826484,6.061318713866154,-10.0,1.1293608772024144,2.26524615101402,-4.670316962775852e-22,0.5954266882181326,-0.048779482578270875,1.222782123837877e-20,0,70,255.0,255.0,255.0
342,17.1,-9.511364049809131,6.174515479025862,-10.0,1.1591280857320658,2.2625330946188016,4.0500543348862514e-23,0.5952616529679073,-0.05974277323044777,8.07346834667885e-21,0,70,255.0,255.0,255.0
343,17.150000000000002,-9.452663637221006,6.287562887252493,-10.0,1.188887042499206,2.2592718736909747,3.403151383903113e-22,0.595096617717682,-0.07070606388262465,3.919115454978929e-21,0,70,255.0,255.0,255.0
344,17.2,-9.392475483088587,6.400433530319411,-10.0,1.2186377475038328,2.2554624882305396,4.324120888467617e-22,0.5949315824674567,-0.08166935453480077,-2.352374367206962e-22,0,70,255.0,255.0,255.0
345,17.25,-9.3308,6.5131,-10.0,1.2483802007459504,2.2511049382374955,3.1679139471822743e-22,0.5947665472172279,-0.09263264518697412,-4.3895903284206145e-21,0,70,255.0,255.0,255.0
346,17.3,-9.267636583816975,6.6255356043902145,-10.0,1.2781754058090398,2.246242203067452,1.2514076585731627e-22,0.5970416553063291,-0.10187676161476573,-3.2764348260157215e-21,0,70,255.0,255.0,255.0
347,17.35,-9.202980563495686,6.737716516876391,-10.0,1.308084366276584,2.2409172620760187,-1.0852087883349438e-23,0.5993167633954305,-0.11112087804255734,-2.163279323610829e-21,0,70,255.0,255.0,255.0
348,17.400000000000002,-9.136826251265907,6.8496196271674625,-10.0,1.3381070821485834,2.235130115263196,-9.118716650376959e-23,0.6015918714845317,-0.12036499447034896,-1.0501238212059359e-21,0,70,255.0,255.0,255.0
349,17.45,-9.069167959357422,6.96122182497235,-10.0,1.3682435534250361,2.228880762628984,-1.1586447000394476e-22,0.6038669795736329,-0.12960911089813992,6.303168119887772e-23,0,70,255.0,255.0,255.0
350,17.5,-9.0,7.0725,-10.0,1.3984937801059454,2.2221692041733827,-8.488399838387807e-23,0.6061420876627253,-0.13885322732592087,1.1761871836037703e-21,0,70,255.0,255.0,255.0
351,17.55,-8.929317356467251,7.1834300685729975,-10.0,1.428817499561428,2.2149370367161696,-3.353136715168012e-23,0.6068066905565658,-0.15043347096260165,8.779180656841187e-22,0,70,255.0,255.0,255.0
352,17.6,-8.85711769620811,7.29398405346859,-10.0,1.4591744491616028,2.207125857077122,2.907808184535033e-24,0.6074712934504064,-0.16201371459928243,5.79648947764467e-22,0,70,255.0,255.0,255.0
353,17.650000000000002,-8.783399357715345,7.404133004077683,-10.0,1.4895646289064695,2.1987356652562413,2.4433527624767393e-23,0.6081358963442469,-0.17359395823596324,2.813798298448153e-22,0,70,255.0,255.0,255.0
354,17.7,-8.70816067948172,7.513847969791178,-10.0,1.5199880387960263,2.189766461253526,3.104579116901704e-23,0.6088004992380874,-0.1851742018726432,-1.6889288074815246e-23,0,70,255.0,255.0,255.0
355,17.75,-8.6314,7.6231,-10.0,1.550444678830277,2.180218245068977,2.2744598817284855e-23,0.609465102131928,-0.19675444550933818,-3.151584059944669e-22,0,70,255.0,255.0,255.0
356,17.8,-8.553115590314013,7.731860921317804,-10.0,1.5809385959452613,2.170137650067873,8.984702749404164e-24,0.6102915824674213,-0.20646935453482143,-2.352374367207529e-22,0,70,255.0,255.0,255.0
357,17.85,-8.473305451671859,7.84010566924927,-10.0,1.61147383707702,2.1595713096154947,-7.791448547907711e-25,0.6111180628029146,-0.21618426356030468,-1.5531646744703895e-22,0,70,255.0,255.0,255.0
358,17.900000000000002,-8.391967517872695,7.9478099565218345,-10.0,1.6420504022255535,2.1485192237118422,-6.546943995299949e-24,0.611944543138408,-0.22589917258578793,-7.539549817332499e-23,0,70,255.0,255.0,255.0
359,17.95,-8.309099722715693,8.054949495862928,-10.0,1.6726682913908595,2.1369813923569163,-8.318694672123392e-24,0.6127710234739012,-0.23561408161127048,4.525471100383308e-24,0,70,255.0,255.0,255.0
360,18.0,-8.2247,8.1615,-10.0,1.7033275045729426,2.1249578155507156,-6.094396885261346e-24,0.6135975038093928,-0.24532899063675373,8.444644037409732e-23,0,70,255.0,255.0,255.0
361,18.05,-8.138765882276688,8.267436646155799,-10.0,1.7340521166575187,2.112416363012343,-2.407443845936533e-24,0.6153869795736338,-0.2563291108981426,6.303168119889309e-23,0,70,255.0,255.0,255.0
362,18.1,-8.051293297104442,8.372732469534354,-10.0,1.7648662025303068,2.099324904460901,2.0877123462805274e-25,0.6171764553378747,-0.26732923115953144,4.1616922023688855e-23,0,70,255.0,255.0,255.0
363,18.150000000000002,-7.962277770793852,8.477359969835009,-10.0,1.795769762191307,2.0856834398963895,1.7542483564324105e-24,0.6189659311021157,-0.2783293514209203,2.0202162848484623e-23,0,70,255.0,255.0,255.0
364,18.2,-7.871714829655512,8.581291646757103,-10.0,1.8267627956405172,2.0714919693188096,2.2289875194765475e-24,0.6207554068663566,-0.2893294716823084,-1.2125963267180921e-24,0,70,255.0,255.0,255.0
365,18.25,-7.7796,8.6845,-10.0,1.8578453028779411,2.0567504927281597,1.632988723760527e-24,0.6225448826305886,-0.3003295919436937,-2.262735550192233e-23,0,70,255.0,255.0,255.0
366,18.3,-7.6859296805792265,8.78695809405901,-10.0,1.8889649374246593,2.0414928978827516,6.4507263434197015e-25,0.6222404992381222,-0.30997420187263186,-1.688928807481938e-23,0,70,255.0,255.0,255.0
367,18.35,-7.590703759910358,8.888641252613336,-10.0,1.9200693528017543,2.025753072540896,-5.594008372143522e-26,0.6219361158456558,-0.3196188118015701,-1.1151220647716432e-23,0,70,255.0,255.0,255.0
368,18.400000000000002,-7.493922998951876,8.989525364138162,-10.0,1.9511585490092258,2.009531016702594,-4.700494304296888e-25,0.6216317324531893,-0.32926342173050827,-5.413153220613483e-24,0,70,255.0,255.0,255.0
369,18.45,-7.3955881586622665,9.089586317108651,-10.0,1.982232526047072,1.992826730367846,-5.972554057827919e-25,0.6213273490607228,-0.3389080316594458,3.249142064890574e-25,0,70,255.0,255.0,255.0
370,18.5,-7.2957,9.1888,-10.0,2.0132912839152968,1.9756402135366498,-4.375580097807629e-25,0.6210229656682564,-0.3485526415883893,6.062981633592009e-24,0,70,255.0,255.0,255.0
371,18.55,-7.194257795406396,9.287141377608172,-10.0,2.0444241336438504,1.957916045456658,-1.7284669143134785e-25,0.6242910234738765,-0.3604140816112716,4.525471100384444e-24,0,70,255.0,255.0,255.0
372,18.6,-7.0912548632541075,9.384581720012317,-10.0,2.0757203862626854,1.9395988053755222,1.4989100257687882e-26,0.6275590812794968,-0.37227552163415395,2.987960567176879e-24,0,70,255.0,255.0,255.0
373,18.650000000000002,-6.986683033398619,9.481091373612378,-10.0,2.107180041771801,1.920688493293242,1.2594936528634427e-25,0.6308271390851169,-0.38413696165703626,1.450450033969314e-24,0,70,255.0,255.0,255.0
374,18.7,-6.880534135695428,9.576640684808286,-10.0,2.1388031001711956,1.9011851092098193,1.6003410365462167e-25,0.6340951968907369,-0.3959984016799178,-8.706049923814194e-26,0,70,255.0,255.0,255.0
375,18.75,-6.7728,9.6712,-10.0,2.1705895614608735,1.881088653125251,1.172433153625247e-25,0.637363254696357,-0.40785984170279654,-1.6245710324457077e-24,0,70,255.0,255.0,255.0
376,18.8,-6.663474337795181,9.764741195508313,-10.0,2.2024265279999415,1.8604909202906221,4.6314131383421093e-26,0.6361154068663503,-0.41604947168234835,-1.2125963267183957e-24,0,70,255.0,255.0,255.0
377,18.85,-6.552558387073195,9.857242267337416,-10.0,2.234201102147509,1.8394837059570157,-4.016317309316616e-27,0.6348675590363434,-0.42423910166190015,-8.006216209910839e-25,0,70,255.0,255.0,255.0
378,18.900000000000002,-6.440055267453618,9.948682741412366,-10.0,2.265913283903577,1.8180670101244316,-3.3748030715688397e-26,0.6336197112063366,-0.43242873164145196,-3.88646915263772e-25,0,70,255.0,255.0,255.0
379,18.95,-6.325968098556033,10.039042143658206,-10.0,2.2975630732681416,1.7962408327928716,-4.288100883569447e-26,0.6323718633763299,-0.44061836162100315,2.332779046351054e-26,0,70,255.0,255.0,255.0
380,19.0,-6.2103,10.1283,-10.0,2.329150470241208,1.7740051739623324,-3.1415251669335936e-26,0.6311240155463196,-0.4488079916005532,4.353024961908227e-25,0,70,255.0,255.0,255.0
381,19.05,-6.093052053412874,10.216433040358593,-10.0,2.3607977543563843,1.7511922733808332,-1.2409834102336598e-26,0.6347673490607264,-0.4637080316593983,3.2491420648913997e-25,0,70,255.0,255.0,255.0
382,19.1,-5.974217188453096,10.303406810638037,-10.0,2.3926272051472814,1.727634370796392,1.0761689795785265e-27,0.6384106825751332,-0.4786080717182433,2.1452591678745732e-25,0,70,255.0,255.0,255.0
383,19.150000000000002,-5.853786296786881,10.389184060738184,-10.0,2.4246388226138986,1.7033314662090082,9.04275757640944e-27,0.64205401608954,-0.4935081117770884,1.0413762708577467e-25,0,70,255.0,255.0,255.0
384,19.200000000000003,-5.7317502700804415,10.47372754055889,-10.0,2.4568326067562367,1.6782835596186825,1.1489931688156147e-26,0.6456973496039469,-0.5084081518359335,-6.250662615908021e-27,0,70,255.0,255.0,255.0
385,19.25,-5.6081,10.557,-10.0,2.4892085575742917,1.652490651025416,8.417691314819042e-27,0.6493406831183428,-0.523308191894774,-1.1663895231758277e-25,0,70,255.0,255.0,255.0
386,19.3,-5.482831848553314,10.638961843057327,-10.0,2.521438454574519,1.6258119861860485,3.3252050259252974e-27,0.639855196890739,-0.5438384016799123,-8.70604992381641e-26,0,70,255.0,255.0,255.0
387,19.35,-5.3559640591144015,10.719564090110453,-10.0,2.553194077263367,1.598106810857424,-2.883586089974914e-28,0.6303697106631352,-0.5643686114650506,-5.748204615874541e-26,0,70,255.0,255.0,255.0
388,19.400000000000002,-5.22752034539883,10.798755415634917,-10.0,2.584475425640834,1.5693751250395427,-2.4229995899493244e-27,0.6208842244355313,-0.5848988212501889,-2.7903593079326724e-26,0,70,255.0,255.0,255.0
389,19.450000000000003,-5.097524421122171,10.876484494106256,-10.0,2.6152824997069204,1.5396169287324044,-3.0787179169302043e-27,0.6113987382079275,-0.6054290310353271,1.6748600000919507e-27,0,70,255.0,255.0,255.0
390,19.5,-4.966,10.9527,-10.0,2.6456152994616247,1.5088322219360113,-2.255513589940238e-27,0.6019132519803065,-0.6259592408204533,3.1253313079508537e-26,0,70,255.0,255.0,255.0
391,19.55,-4.832971752373861,11.02735798741211,-10.0,2.675416427345541,1.4774637818749734,-8.90986001364594e-28,0.5901318633763195,-0.628778361621037,2.3327790463516446e-26,0,70,255.0,255.0,255.0
392,19.6,-4.698468175089278,11.100444028920164,-10.0,2.7046284857992577,1.4459543857739068,7.726545641143983e-29,0.5783504747723324,-0.6315974824216206,1.5402267847524354e-26,0,70,255.0,255.0,255.0
393,19.650000000000002,-4.562518721617767,11.171951076722168,-10.0,2.7332514748227745,1.4143040336328105,6.492407833878633e-28,0.5665690861683453,-0.6344166032222043,7.476745231532263e-27,0,70,255.0,255.0,255.0
394,19.700000000000003,-4.425152845430834,11.241872083016116,-10.0,2.7612853944160927,1.3825127254516856,8.24939979564677e-28,0.5547876975643583,-0.6372357240227879,-4.487773844598276e-28,0,70,255.0,255.0,255.0
395,19.75,-4.2864,11.3102,-10.0,2.78873024457921,1.3505804612305332,6.043630449419091e-28,0.5430063089603969,-0.6400548448233678,-8.374300000451353e-27,0,70,255.0,255.0,255.0
396,19.8,-4.1462899419512365,11.376925407294243,-10.0,2.815567836043319,1.3183648863140507,2.387389795330782e-28,0.5304973496039557,-0.6485681518359123,-6.250662615901674e-27,0,70,255.0,255.0,255.0
397,19.85,-4.004853640528462,11.442029394208896,-10.0,2.841779979539606,1.285723646046941,-2.07032166482672e-29,0.5179883902475144,-0.6570814588484569,-4.127025231351995e-27,0,70,255.0,255.0,255.0
398,19.900000000000002,-3.8621223681300685,11.505490677476429,-10.0,2.8673666750680713,1.2526567404292042,-1.7396354360212725e-28,0.5054794308910731,-0.6655947658610014,-2.0033878468023164e-27,0,70,255.0,255.0,255.0
399,19.950000000000003,-3.7181273971544475,11.567287973829309,-10.0,2.8923279226287146,1.21916416946084,-2.210420013285017e-28,0.4929704715346318,-0.6741080728735459,1.2024953774736263e-28,0,70,255.0,255.0,255.0
400,20.0,-3.5729,11.6274,-10.0,2.916663722221534,1.185245933141851,-1.6193858982739885e-28,0.4804615121781879,-0.6826213798860898,2.243886922296891e-27,0,70,255.0,255.0,255.0
401,20.05,-3.4264708798211867,11.685805983410924,-10.0,2.940408228481187,1.150932672868815,-6.396991676771861e-29,0.4693187382079172,-0.6899090310353303,1.674860000090263e-27,0,70,255.0,255.0,255.0
402,20.1,-3.2788684627968525,11.742487194244259,-10.0,2.9635955960423264,1.116255030038317,5.547410181629804e-30,0.4581759642376465,-0.6971966821845706,1.1058330778836346e-27,0,70,255.0,255.0,255.0
403,20.150000000000002,-3.130120605861925,11.797425413372132,-10.0,2.9862258249049525,1.081213004650357,4.6613391020646415e-29,0.44703319026737587,-0.7044843333338111,5.368061556770066e-28,0,70,255.0,255.0,255.0
404,20.200000000000003,-2.9802551659513283,11.850602421666672,-10.0,3.0082989150690644,1.045806596704935,5.922802574933121e-29,0.4358904162971052,-0.7117719844830515,-3.222076652962182e-29,0,70,255.0,255.0,255.0
405,20.25,-2.8293,11.902,-10.0,3.029814866534662,1.0100358062020534,4.3391314367686346e-29,0.42474764232683526,-0.7190596356322985,-6.012476887362094e-28,0,70,255.0,255.0,255.0
406,20.3,-2.677283338764007,11.951600259062067,-10.0,3.050751250031942,0.9739204222106765,1.7140687537796335e-29,0.4127076975643531,-0.7255557240227539,-4.4877738445937605e-28,0,70,255.0,255.0,255.0
407,20.35,-2.524234908284104,11.999386628814076,-10.0,3.0710856362910977,0.937480233799777,-1.4864240782519032e-30,0.40066775280187095,-0.7320518124132095,-2.9630708018254277e-28,0,70,255.0,255.0,255.0
408,20.400000000000002,-2.3701848084221955,12.045342869035053,-10.0,3.0908180253121293,0.9007152409693545,-1.2490020480458358e-29,0.3886278080393888,-0.738547900803665,-1.4383677590570948e-28,0,70,255.0,255.0,255.0
409,20.450000000000003,-2.2151631390401882,12.08945273950402,-10.0,3.1099484170950373,0.8636254437194094,-1.5870101668823063e-29,0.37658786327690663,-0.7450439891941205,8.633528371123845e-30,0,70,255.0,255.0,255.0
410,20.5,-2.0592,12.1317,-10.0,3.1284768116398194,0.826210842049944,-1.1626667643346526e-29,0.36454791851441115,-0.7515400775845782,1.6110383264794628e-28,0,70,255.0,255.0,255.0
411,20.55,-1.9023253651227723,12.172068180340814,-10.0,3.1464107713910456,0.7884576382884894,-4.592833383466739e-30,0.3528104715346343,-0.7585880728735865,1.2024953774724124e-28,0,70,255.0,255.0,255.0
412,20.6,-1.7445687040667075,12.210539890499444,-10.0,3.1637578587932835,0.7503520347625843,3.982861313777693e-31,0.34107302455485744,-0.7656360681625948,7.939524284653622e-29,0,70,255.0,255.0,255.0
413,20.650000000000002,-1.585959360449256,12.247097510487666,-10.0,3.1805180738465317,0.7118940314722288,3.346690901186996e-30,0.32933557757508064,-0.7726840634516031,3.854094794583121e-29,0,70,255.0,255.0,255.0
414,20.700000000000003,-1.4265266778878662,12.28172342031726,-10.0,3.196691416550792,0.6730836284174229,4.252380925960945e-30,0.3175981305953038,-0.7797320587406115,-2.31334695487383e-30,0,70,255.0,255.0,255.0
415,20.75,-1.2663,12.3144,-10.0,3.2122778869060613,0.6339208255981693,3.1153562056997665e-30,0.3058606836155455,-0.786780054029621,-4.3167641855575953e-29,0,70,255.0,255.0,255.0
416,20.8,-1.1053088007448912,12.345109419574683,-10.0,3.2272696644038783,0.5943930246353524,1.230645996070613e-30,0.2938104162971248,-0.7943319844830323,-3.222076652958911e-29,0,70,255.0,255.0,255.0
417,20.85,-0.9435830754490395,12.373833009188157,-10.0,3.241658928535774,0.554487627149865,-1.0672044725919017e-31,0.2817601489787041,-0.8018839149364436,-2.127389120360226e-29,0,70,255.0,255.0,255.0
418,20.900000000000002,-0.7811529497807412,12.400551889014292,-10.0,3.2554456793017494,0.514204633141707,-8.967431242896428e-31,0.2697098816602834,-0.8094358453898548,-1.0327015877615416e-29,0,70,255.0,255.0,255.0
419,20.950000000000003,-0.618048549408292,12.425247179226952,-10.0,3.268629916701803,0.47354404261087835,-1.1394220350207459e-30,0.2576596143418627,-0.8169877758432661,6.198594483714352e-31,0,70,255.0,255.0,255.0
420,21.0,-0.4543,12.4479,-10.0,3.2812116407359353,0.4325058555573822,-8.34757179452539e-31,0.2456093470234677,-0.8245397062966751,1.1566734774357507e-29,0,70,255.0,255.0,255.0
421,21.05,-0.28993703189764924,12.46849174136046,-10.0,3.2932145709934444,0.39110626317011166,-3.2975060081571553e-31,0.23450786327689582,-0.8314439891941245,8.633528371115149e-30,0,70,255.0,255.0,255.0
422,21.1,-0.12498779413710631,12.487004872747931,-10.0,3.3046624270636253,0.3493614566379685,2.8595657658987994e-32,0.22340637953032397,-0.838348272091574,5.700321967872789e-30,0,70,255.0,255.0,255.0
423,21.150000000000002,0.04051995957226245,12.503422133455173,-10.0,3.3155552089464773,0.307271435960953,2.402815959715717e-31,0.21230489578375208,-0.8452525549890235,2.767115564630431e-30,0,70,255.0,255.0,255.0
424,21.200000000000003,0.20655847552109066,12.517726262774945,-10.0,3.325892916642001,0.264836201139065,3.053072141220349e-31,0.2012034120371802,-0.852156837886473,-1.6609083861192927e-31,0,70,255.0,255.0,255.0
425,21.25,0.3731,12.5299,-10.0,3.3356755501501953,0.22205575217230755,2.2367251211038956e-31,0.19010192829060557,-0.8590611207839232,-3.099297241854078e-30,0,70,255.0,255.0,255.0
426,21.3,0.5401161283355024,12.539926014983488,-10.0,3.344864051622343,0.1789259226841926,8.835640719224846e-32,0.17743813059530336,-0.86613205874065,-2.3133469548714897e-30,0,70,255.0,255.0,255.0
427,21.35,0.7075758519974931,12.547786699820122,-10.0,3.353419363209726,0.13544254629824132,-7.662183376762694e-33,0.16477433290000112,-0.8732029966973769,-1.5273966678889019e-30,0,70,255.0,255.0,255.0
428,21.400000000000002,0.8754475114917336,12.553464377165014,-10.0,3.3613414849123435,0.09160562301445369,-6.438325959664389e-32,0.15211053520469892,-0.8802739346541038,-7.4144638090631405e-31,0,70,255.0,255.0,255.0
429,21.450000000000003,1.043699447323986,12.556941369673268,-10.0,3.368630416730196,0.047415152832829696,-8.180682146739511e-32,0.1394467375093967,-0.8873448726108306,4.450390607627413e-32,0,70,255.0,255.0,255.0
430,21.5,1.2123,12.5582,-10.0,3.3752861586632825,0.0028711357533725344,-5.99328689890194e-32,0.12678293981407762,-0.894415810567557,8.304541930588063e-31,0,70,255.0,255.0,255.0
431,21.55,1.381218118555654,12.557222598705593,-10.0,3.3813452225171816,-0.042025953906897125,-2.3675027953278416e-32,0.11557961434187389,-0.9014677758432038,6.198594483708127e-31,0,70,255.0,255.0,255.0
432,21.6,1.5504251861471627,12.55399152797158,-10.0,3.38684412009747,-0.08727564183094914,2.053075848062741e-33,0.10437628886967015,-0.9085197411188507,4.092647036828191e-31,0,70,255.0,255.0,255.0
433,21.650000000000002,1.7198931944608455,12.548489157884768,-10.0,3.3917828514041486,-0.1328779280187835,1.725144241500408e-32,0.09317296339746642,-0.9155717063944975,1.9866995899482543e-31,0,70,255.0,255.0,255.0
434,21.700000000000003,1.8895941351830223,12.54069785853197,-10.0,3.3961614164372165,-0.1788328124704002,2.1920071747545572e-32,0.08196963792526268,-0.9226236716701443,-1.1924785693168127e-32,0,70,255.0,255.0,255.0
435,21.75,2.0595,12.5306,-10.0,3.3999798151966747,-0.22514029518579592,1.6058963845688024e-32,0.07076631245305975,-0.9296756369457899,-2.2251953038114675e-31,0,70,255.0,255.0,255.0
436,21.8,2.2295825974418957,12.518177990194136,-10.0,3.403227058308931,-0.2717981070566034,6.343704620865206e-33,0.059123412037183534,-0.9366368378864807,-1.6609083861176041e-31,0,70,255.0,255.0,255.0
437,21.85,2.3998130034138843,12.503414388293555,-10.0,3.405892156400393,-0.31880397897444535,-5.501200154882534e-34,0.047480511621307314,-0.9435980388271714,-1.0966214684237408e-31,0,70,255.0,255.0,255.0
438,21.900000000000002,2.570162110664927,12.486291791295907,-10.0,3.4079751094710615,-0.3661579109393218,-4.6225100633723546e-33,0.03583761120543109,-0.9505592397678622,-5.323345507298772e-32,0,70,255.0,255.0,255.0
439,21.950000000000003,2.7406008119439824,12.466792796198838,-10.0,3.409475917520936,-0.41385990295123287,-5.8734655227870984e-33,0.024194710789554867,-0.9575204407085529,3.195236696398598e-33,0,70,255.0,255.0,255.0
440,22.0,2.9111,12.4449,-10.0,3.410394580550017,-0.461909955010175,-4.3029863937327025e-33,0.012551810373679473,-0.9644816416492401,5.962392846578093e-32,0,70,255.0,255.0,255.0
441,22.05,3.081630691676777,12.420595840517862,-10.0,3.410738544247094,-0.5103176178666785,-1.6997905301824143e-33,0.001206737509394722,-0.9718248726108714,4.4503906076229124e-32,0,70,255.0,255.0,255.0
442,22.1,3.2521644001973273,12.393862118854198,-10.0,3.4105152543009565,-0.5590924422712635,1.4740421389027327e-34,-0.010138335354890029,-0.9791681035725026,2.9383883686677326e-32,0,70,255.0,255.0,255.0
443,22.150000000000002,3.4226727628794906,12.364680476931602,-10.0,3.409724710711605,-0.60823442822393,1.23859783848536e-33,-0.021483408219174778,-0.9865113345341339,1.4263861297125528e-32,0,70,255.0,255.0,255.0
444,22.200000000000003,3.593127417041105,12.33303255667267,-10.0,3.408366913479039,-0.6577435757246783,1.5737903436028462e-33,-0.03282848108345953,-0.9938545654957652,-8.561610924262754e-34,0,70,255.0,255.0,255.0
445,22.25,3.7635,12.2989,-10.0,3.4064418626032595,-0.7076198847735045,1.1529817292427892e-33,-0.0441735539477186,-1.0011977964573937,-1.597618348197699e-32,0,70,255.0,255.0,255.0
446,22.3,3.933760235851011,12.262264247734413,-10.0,3.4038347647026983,-0.7578754214766936,4.554574998644513e-34,-0.060110362074739014,-1.009023671670147,-1.1924785693156126e-32,0,70,255.0,255.0,255.0
447,22.35,4.103870195796835,12.223105936289652,-10.0,3.4004308263957856,-0.8085222519405206,-3.949684007284044e-35,-0.07604717020175943,-1.0168495468829002,-7.873387904335262e-33,0,70,255.0,255.0,255.0
448,22.400000000000002,4.273790037817155,12.181405500977682,-10.0,3.396230047682522,-0.8595603761649852,-3.3188129056908577e-34,-0.09198397832877983,-1.0246754220956535,-3.8219901155143984e-33,0,70,255.0,255.0,255.0
449,22.450000000000003,4.443479919891653,12.137143377110474,-10.0,3.3912324285629074,-0.9109897941500874,-4.21695851624286e-34,-0.10792078645580025,-1.032501297308407,2.2940767330646536e-34,0,70,255.0,255.0,255.0
450,22.5,4.6129,12.0903,-10.0,3.3854379690369423,-0.9628105058958237,-3.089405232384547e-34,-0.12385759458279821,-1.0403271725211622,4.28080546212704e-33,0,70,255.0,255.0,255.0
451,22.55,4.782005964919192,12.040861568544477,-10.0,3.378578396942111,-1.0146766962265663,-1.2203946927539145e-34,-0.15052528921044336,-1.0343204407085094,3.195236696395383e-33,0,70,255.0,255.0,255.0
452,22.6,4.950735616615359,11.988837335987185,-10.0,3.3703854401158977,-1.0662425499666761,1.0583146401088161e-35,-0.1771929838380885,-1.0283137088958565,2.109667930663726e-33,0,70,255.0,255.0,255.0
453,22.650000000000002,5.119022285851931,11.934242319157653,-10.0,3.360859098558302,-1.1175080671161535,8.892732379098415e-35,-0.2038606784657337,-1.0223069770832036,1.0240991649320695e-33,0,70,255.0,255.0,255.0
454,22.700000000000003,5.286799303392337,11.877091534885412,-10.0,3.349999372269324,-1.168473247674998,1.1299306289429657e-34,-0.23052837309337884,-1.0163002452705507,-6.146960079958742e-35,0,70,255.0,255.0,255.0
455,22.75,5.454,11.8174,-10.0,3.337806261248965,-1.2191380916432064,8.278036371102938e-35,-0.25719606772101855,-1.010293513457892,-1.1470383665311674e-33,0,70,255.0,255.0,255.0
456,22.8,5.620564704472232,11.755183878087665,-10.0,3.3246996475288535,-1.2694337936170481,3.2700377237114384e-35,-0.26706848108344317,-1.001534565495742,-8.561610924254039e-34,0,70,255.0,255.0,255.0
457,22.85,5.786461737741754,11.690463919761594,-10.0,3.3110994131406204,-1.319291548192782,-2.8357455315122235e-36,-0.2769408944458678,-0.992775617533592,-5.6528381831964025e-34,0,70,255.0,255.0,255.0
458,22.900000000000002,5.951666418775163,11.623262022391687,-10.0,3.2970055580842663,-1.3687113553704084,-2.3828004594850445e-35,-0.2868133078082924,-0.984016669571442,-2.744065442138768e-34,0,70,255.0,255.0,255.0
459,22.950000000000003,6.116154066539051,11.553600083347852,-10.0,3.282418082359791,-1.4176932151499275,-3.027639995290028e-35,-0.296685721170717,-0.9752577216092919,1.64707298918869e-35,0,70,255.0,255.0,255.0
460,23.0,6.2799,11.4815,-10.0,3.2673369859671957,-1.4662371275313357,-2.2180931605662825e-35,-0.3065581345331587,-0.9664987736471389,3.0734800399762973e-34,0,70,255.0,255.0,255.0
461,23.05,6.442878417191894,11.406983719104847,-10.0,3.2516950129424713,-1.514340129305226,-8.762039673066083e-36,-0.3191207864557947,-0.9576212973084458,2.2940767330623234e-34,0,70,255.0,255.0,255.0
462,23.1,6.605059032417649,11.330073384966424,-10.0,3.235424907321616,-1.5619992572621817,7.598357249607344e-37,-0.33168343837843073,-0.9487438209697527,1.5146734261483497e-34,0,70,255.0,255.0,255.0
463,23.150000000000002,6.766410439047458,11.250791191275578,-10.0,3.218526669104628,-1.6092145114022027,6.38469458841763e-36,-0.3442460903010668,-0.9398663446310597,7.35270119234376e-35,0,70,255.0,255.0,255.0
464,23.200000000000003,6.926901230451515,11.16915933172315,-10.0,3.2010002982915085,-1.655985891725289,8.112536917304596e-36,-0.3568087422237028,-0.9309888682923665,-4.413318767959791e-36,0,70,255.0,255.0,255.0
465,23.25,7.0865,11.0852,-10.0,3.1828457948822586,-1.7023133982314373,5.943362711621936e-36,-0.369371394146345,-0.9221113919536776,-8.235364945935162e-35,0,70,255.0,255.0,255.0
466,23.3,7.245174426760204,10.998934845492936,-10.0,3.164008300701265,-1.7482296891620446,2.347781455149953e-36,-0.3841283730933734,-0.9145402452705836,-6.146960079952565e-35,0,70,255.0,255.0,255.0
467,23.35,7.402888532587674,10.910383340372695,-10.0,3.1444329575729206,-1.793767422758497,-2.035973683307161e-37,-0.3988853520404018,-0.9069690985874898,-4.0585552139699675e-35,0,70,255.0,255.0,255.0
468,23.400000000000002,7.559605425035044,10.819564412505986,-10.0,3.1241197654972246,-1.8389265990207948,-1.7107737588200706e-36,-0.4136423309874302,-0.8993979519043958,-1.9701503479873708e-35,0,70,255.0,255.0,255.0
469,23.450000000000003,7.715288211654947,10.726496989759518,-10.0,3.1030687244741775,-1.8837072179489378,-2.1737477163181138e-36,-0.4283993099344586,-0.8918268052213019,1.182545179952274e-36,0,70,255.0,255.0,255.0
470,23.5,7.8699,10.6312,-10.0,3.0812798345037797,-1.9281092795429233,-1.59251924082492e-36,-0.44315628888149305,-0.8842556585382138,2.2066593839776768e-35,0,70,255.0,255.0,255.0
471,23.55,8.023405475767303,10.5336928989234,-10.0,3.0588477842524737,-1.9721011140466105,-6.29086147533731e-37,-0.45412572117074834,-0.875417721609251,1.6470729891870243e-35,0,70,255.0,255.0,255.0
472,23.6,8.175775637231677,10.433997253542778,-10.0,3.035867262386704,-2.0156510517038497,5.455374836212772e-38,-0.4650951534600036,-0.8665797846802883,1.0874865943963718e-35,0,70,255.0,255.0,255.0
473,23.650000000000002,8.326983060812404,10.332135158700451,-10.0,3.0123382689064724,-2.0587590925146406,4.584004468626563e-37,-0.47606458574925886,-0.8577418477513256,5.2790019960571924e-36,0,70,255.0,255.0,255.0
474,23.700000000000003,8.477000322928756,10.22812870923875,-10.0,2.988260803811778,-2.1014252364789834,5.8245394796785436e-37,-0.4870340180385141,-0.8489039108223628,-3.1686195184933174e-37,0,70,255.0,255.0,255.0
475,23.75,8.6258,10.122,-10.0,2.963634867102622,-2.1436494835968753,4.267142516777438e-37,-0.4980034503277757,-0.8400659738934024,-5.9127258997554596e-36,0,70,255.0,255.0,255.0
476,23.8,8.7733532701706,10.013771158813453,-10.0,2.938376562288835,-2.18542985465152,1.6856313498497028e-37,-0.5123287422236852,-0.8311488682923609,-4.4133187679553327e-36,0,70,255.0,255.0,255.0
477,23.85,8.919625718485642,9.903464445456178,-10.0,2.9124019928802527,-2.2267643704261126,-1.4617625117795792e-38,-0.5266540341195945,-0.8222317626913193,-2.9139116361552057e-36,0,70,255.0,255.0,255.0
478,23.900000000000002,9.064581531715383,9.791102152692174,-10.0,2.885711158876875,-2.2676530309206533,-1.228280286305543e-37,-0.540979326015504,-0.8133146570902777,-1.4145045043550787e-36,0,70,255.0,255.0,255.0
479,23.950000000000003,9.208184896630085,9.676706573285443,-10.0,2.858304060278702,-2.3080958361351414,-1.5606807555330573e-37,-0.5553046179114135,-0.8043975514892362,8.490262744504833e-38,0,70,255.0,255.0,255.0
480,24.0,9.3504,9.5603,-10.0,2.8301806970857353,-2.348092786069575,-1.1433776588605504e-37,-0.5696299098073254,-0.7954804458882023,1.5843097592450684e-36,0,70,255.0,255.0,255.0
481,24.05,9.491191843550311,9.441904065822772,-10.0,2.80138996659219,-2.3876834673473133,-4.51663924061502e-38,-0.581999309934463,-0.7881468052213108,1.1825451799510857e-36,0,70,255.0,255.0,255.0
482,24.1,9.630528688825784,9.321537764632488,-10.0,2.771980766092288,-2.4269074665917074,3.916752109055216e-39,-0.5943687100616006,-0.7808131645544192,7.807806006571031e-37,0,70,255.0,255.0,255.0
483,24.150000000000002,9.768379612326104,9.199219430530817,-10.0,2.741953095586029,-2.4657647838027565,3.2911667659561216e-38,-0.6067381101887384,-0.7734795238875276,3.790160213631204e-37,0,70,255.0,255.0,255.0
484,24.200000000000003,9.90471369055095,9.07496739761943,-10.0,2.7113069550734132,-2.504255418980461,4.181835424536777e-38,-0.619107510315876,-0.7661458832206359,-2.2748557930862247e-38,0,70,255.0,255.0,255.0
485,24.25,10.0395,8.9488,-10.0,2.680042344554443,-2.542379372124818,3.0636811866476514e-38,-0.631476910443034,-0.7588122425537343,-4.245131372248161e-37,0,70,255.0,255.0,255.0
486,24.3,10.172707355628171,8.820736577895454,-10.0,2.648143571342403,-2.5800762759592213,1.2102434639630544e-38,-0.6444740180385496,-0.7490639108223894,-3.168619518490122e-37,0,70,255.0,255.0,255.0
487,24.35,10.304303526211248,8.69080049601385,-10.0,2.615594942750587,-2.6172857632070583,-1.0493833184251542e-39,-0.6574711256340653,-0.7393155790910446,-2.0921076647320826e-37,0,70,255.0,255.0,255.0
488,24.400000000000002,10.43425601898024,8.55901612518452,-10.0,2.5823964587789954,-2.654007833868327,-8.81864200769058e-39,-0.6704682332295809,-0.7295672473596997,-1.015595810974043e-37,0,70,255.0,255.0,255.0
489,24.450000000000003,10.562532341166156,8.425407836236792,-10.0,2.548548119427628,-2.690242487943029,-1.1205341428165735e-38,-0.6834653408250965,-0.7198189156283549,6.09160427839957e-39,0,70,255.0,255.0,255.0
490,24.5,10.6891,8.29,-10.0,2.514049924696487,-2.7259897254311616,-8.209481579851017e-39,-0.6964624484206219,-0.7100705838970001,1.1374278965419584e-37,0,70,255.0,255.0,255.0
491,24.55,10.813926733937011,8.152816022595406,-10.0,2.478915748038186,-2.761307428815817,-3.24334615237198e-39,-0.708904617911393,-0.7026375514891995,8.490262744496282e-38,0,70,255.0,255.0,255.0
492,24.6,10.936981206329246,8.013875451312087,-10.0,2.4431594629053466,-2.7962534805800825,2.80781164645385e-40,-0.7213467874021642,-0.6952045190813988,5.606246523572979e-38,0,70,255.0,255.0,255.0
493,24.650000000000002,11.058232311752974,7.873196868731065,-10.0,2.4067810692979683,-2.830827880723958,2.3629003712010796e-39,-0.7337889568929354,-0.6877714866735982,2.722230302649677e-38,0,70,255.0,255.0,255.0
494,24.700000000000003,11.17764894478447,7.73079885743336,-10.0,2.369780567216052,-2.8650306292474434,3.0030114672950995e-39,-0.7462311263837066,-0.6803384542657976,-1.617859182736264e-39,0,70,255.0,255.0,255.0
495,24.75,11.2952,7.5867,-10.0,2.332157956659599,-2.8988617261505363,2.201114452927555e-39,-0.7586732958744875,-0.6729054218579975,-3.0458021391967255e-38,0,70,255.0,255.0,255.0
496,24.8,11.410853708623787,7.440919331722915,-10.0,2.29387343650484,-2.9322940087775025,8.709499698573783e-40,-0.772707510315867,-0.6643858832206304,-2.2748557930839056e-38,0,70,255.0,255.0,255.0
497,24.85,11.524575648471785,7.293477698737778,-10.0,2.254887205628011,-2.9653003144726,-7.374134015638323e-41,-0.7867417247572466,-0.6558663445832633,-1.5039094469710856e-38,0,70,255.0,255.0,255.0
498,24.900000000000002,11.63633073400789,7.144396399891181,-10.0,2.2151992640291143,-2.99788064323583,-6.329594771137285e-40,-0.8007759391986261,-0.6473468059458962,-7.329631008582659e-39,0,70,255.0,255.0,255.0
499,24.950000000000003,11.746083879695998,6.9936967340297205,-10.0,2.1748096117081475,-3.030034995067191,-8.0670444101466e-40,-0.8148101536400056,-0.6388272673085291,3.798324525455437e-40,0,70,255.0,255.0,255.0
500,25.0,11.8538,6.8414,-10.0,2.133718248665115,-3.0617633699666817,-5.9497623185920305e-40,-0.8288443680813913,-0.6303077286711734,8.08929591367319e-39,0,70,255.0,255.0,255.0
501,25.05,11.959444831567845,6.687527450512926,-10.0,2.091974505942452,-3.0930685360741714,-2.4045372705753277e-40,-0.8409053408251113,-0.6218989156283959,6.091604278393422e-39,0,70,255.0,255.0,255.0
502,25.1,12.062987399783628,6.532100153736781,-10.0,2.049627714582603,-3.1239532615295222,1.4184195980147722e-41,-0.8529663135688313,-0.6134901025856185,4.093912643113654e-39,0,70,255.0,255.0,255.0
503,25.150000000000002,12.164397552215489,6.375139131704172,-10.0,2.0066778745855673,-3.154417546332734,1.6893753725383851e-40,-0.8650272863125513,-0.6050812895428411,2.096221007833886e-39,0,70,255.0,255.0,255.0
504,25.200000000000003,12.263645136431567,6.216665406447705,-10.0,1.9631249859513464,-3.1844613904838073,2.238062967635391e-40,-0.8770882590562713,-0.5966724765000637,9.852937255411818e-41,0,70,255.0,255.0,255.0
505,25.25,12.3607,6.0567,-10.0,1.9189690486799427,-3.214084793982739,1.7879047450925737e-40,-0.8891492317999923,-0.5882636634572833,-1.8991622627255066e-39,0,70,255.0,255.0,255.0
506,25.3,12.455530965104838,5.895265266225369,-10.0,1.8741485397253492,-3.2432078469258157,9.08649383727526e-41,-0.903671126383721,-0.5766584542657652,-1.617859182734634e-39,0,70,255.0,255.0,255.0
507,25.35,12.548102752393717,5.732388886315074,-10.0,1.828601936041569,-3.271750639409316,1.700455623579167e-41,-0.9181930209674498,-0.5650532450742471,-1.3365561027437613e-39,0,70,255.0,255.0,255.0
508,25.400000000000002,12.638379057130178,5.568099873292092,-10.0,1.7823292376286028,-3.299713171433241,-4.2790671901625416e-41,-0.9327149155511786,-0.5534480358827291,-1.0552530227528888e-39,0,70,255.0,255.0,255.0
509,25.450000000000003,12.726323574577762,5.402427240179406,-10.0,1.7353304444864501,-3.3270954429975896,-8.852074603949873e-41,-0.9472368101349073,-0.541842826691211,-7.739499427620162e-40,0,70,255.0,255.0,255.0
510,25.5,12.8119,5.2354,-10.0,1.687605556615114,-3.3538974541023605,-1.2018566617782641e-40,-0.9617587047186369,-0.530237617499683,-4.926468627711635e-40,0,70,255.0,255.0,255.0
511,25.55,12.895075308012807,5.067053084585585,-10.0,1.6393513351561477,-3.3797640762225667,-1.230060264334777e-40,-0.9684101536399902,-0.5044272673085406,3.7983245254511365e-40,0,70,255.0,255.0,255.0
512,25.6,12.975829590641515,4.897445101002898,-10.0,1.5907645412511136,-3.404340180833215,-8.220242092331449e-41,-0.9750616025613434,-0.47861691711739807,1.2523117678613908e-39,0,70,255.0,255.0,255.0
513,25.650000000000002,13.05414621926382,4.726640575127418,-10.0,1.541845174900012,-3.427625767934307,2.225150352663191e-42,-0.9817130514826967,-0.4528065669262556,2.1247910831776682e-39,0,70,255.0,255.0,255.0
514,25.700000000000003,13.130008565257418,4.554704032834622,-10.0,1.4925932361028427,-3.4496208375258415,1.3027668739445536e-40,-0.9883645004040499,-0.4269962167351131,2.997270398493945e-39,0,70,255.0,255.0,255.0
515,25.75,13.2034,4.3817,-10.0,1.443008724859609,-3.4703253896078174,3.0195219020204826e-40,-0.9950159493254027,-0.4011858665439654,3.86974971381016e-39,0,70,255.0,255.0,255.0
516,25.8,13.274308602843938,4.207687195432278,-10.0,1.3933741196500664,-3.490087848183918,4.011591673611581e-40,-0.9903682590562787,-0.3893124765000655,9.852937255417886e-41,0,70,255.0,255.0,255.0
517,25.85,13.342741285040233,4.032701109673307,-10.0,1.3439718989539797,-3.5092566372578244,3.1180512745746623e-40,-0.9857205687871547,-0.37743908645616564,-3.6726909687018024e-39,0,70,255.0,255.0,255.0
518,25.900000000000002,13.40870966581456,3.8567714261981947,-10.0,1.2948020627713495,-3.5278317568295354,3.38900704909725e-41,-0.9810728785180307,-0.3655656964122658,-7.443911309957783e-39,0,70,255.0,255.0,255.0
519,25.950000000000003,13.472225364392594,3.679927828482051,-10.0,1.2458646111021752,-3.5458132068990516,-4.325860035383226e-40,-0.9764251882489068,-0.35369230636836596,-1.1215131651213765e-38,0,70,255.0,255.0,255.0
520,26.0,13.5333,3.5022,-10.0,1.197159543946461,-3.563200987466371,-1.0876230946303666e-39,-0.9717774979797813,-0.3418189163244634,-1.4986351992469475e-38,0,70,255.0,255.0,255.0
521,26.05,13.59194308061145,3.3236181336852875,-10.0,1.148560186243592,-3.5799645310417634,-1.481630643011155e-39,-0.9721968101349528,-0.3287228266912093,-7.739499427618284e-40,0,70,255.0,255.0,255.0
522,26.1,13.648155669197566,3.1442144603038464,-10.0,1.0999398629329644,-3.5960732701354923,-1.1650180889065505e-39,-0.9726161222901244,-0.31562673705795524,1.3438452106945819e-38,0,70,255.0,255.0,255.0
523,26.150000000000002,13.701936717477952,2.964021720079761,-10.0,1.0512985740145782,-3.611527204747559,-1.3778543231655417e-40,-0.9730354344452959,-0.30253064742470115,2.7650854156653466e-38,0,70,255.0,255.0,255.0
524,26.200000000000003,13.753285177172229,2.783072653237113,-10.0,1.0026363194884333,-3.626326334877963,1.6000673267588358e-39,-0.9734547466004674,-0.2894345577914471,4.1863256206361115e-38,0,70,255.0,255.0,255.0
525,26.25,13.8022,2.6014,-10.0,0.9539530993545337,-3.6404706605267037,4.048540188319418e-39,-0.9738740587556398,-0.2763384681582117,5.607565825606775e-38,0,70,255.0,255.0,255.0
526,26.3,13.848681474710263,2.4190370698265573,-10.0,0.9053291353755423,-3.6539260276490366,5.525363404683461e-39,-0.9710845004039887,-0.2618762167351056,2.997270398493141e-39,0,70,255.0,255.0,255.0
527,26.35,13.892735238169514,2.236019449111277,-10.0,0.8568446493141334,-3.6666582822002147,4.3482672281687364e-39,-0.9682949420523376,-0.2474139653119994,-5.008111745908147e-38,0,70,255.0,255.0,255.0
528,26.400000000000002,13.934368264273635,2.0523832934827166,-10.0,0.8084996411703071,-3.678667424180237,5.172516587752429e-40,-0.9655053837006865,-0.23295171388889324,-1.0315950531665608e-37,0,70,255.0,255.0,255.0
529,26.450000000000003,13.973587526918505,1.8681647585694339,-10.0,0.7602941109440633,-3.689953453589104,-5.967683303497017e-39,-0.9627158253490354,-0.2184894624657871,-1.562378931742307e-37,0,70,255.0,255.0,255.0
530,26.5,14.0104,1.6834,-10.0,0.7122280586354055,-3.700516370426816,-1.5106537658647305e-38,-0.9599262669973836,-0.20402721104271038,-2.0931628103180157e-37,0,70,255.0,255.0,255.0
531,26.55,14.044811820547503,1.4981247870084675,-10.0,0.6642512722542475,-3.710379358362093,-2.061982297572269e-38,-0.9591451882489104,-0.19049230636836734,-1.1215131651210761e-38,0,70,255.0,255.0,255.0
532,26.6,14.076825778124384,1.312373343251014,-10.0,0.6163135398105131,-3.719565601063653,-1.6228050823768393e-38,-0.958364109500437,-0.1769574016940243,1.8688601772938005e-37,0,70,255.0,255.0,255.0
533,26.650000000000002,14.106443825427514,1.1261795059893258,-10.0,0.5684148613042024,-3.7280750985314954,-1.931221202784416e-39,-0.9575830307519637,-0.16342249701968128,3.849871671099709e-37,0,70,255.0,255.0,255.0
534,26.700000000000003,14.133667915153762,0.9395771124850878,-10.0,0.5205552367353153,-3.735907850765621,2.2270665887229243e-38,-0.9568019520034905,-0.14988759234533824,5.830883164905617e-37,0,70,255.0,255.0,255.0
535,26.75,14.1585,0.7526,-10.0,0.47273466610385545,-3.7430638577660296,5.63776104462698e-38,-0.956020873255016,-0.1363526876710246,7.811894658711384e-37,0,70,255.0,255.0,255.0
536,26.8,14.18094244309973,0.5652821821395569,-10.0,0.4249777756074666,-3.7495325389025917,7.69539284982073e-38,-0.9542547466005119,-0.12239455779146817,4.1863256206349756e-38,0,70,255.0,255.0,255.0
537,26.85,14.200999249332959,0.37765837788463513,-10.0,0.3773091914438029,-3.7553033135451765,6.056393606690483e-38,-0.9524886199460078,-0.10843642791191174,-6.974629534584389e-37,0,70,255.0,255.0,255.0
538,26.900000000000002,14.218674834016323,0.1897634825599336,-10.0,0.3297289136128644,-3.760376181693783,7.20763315236241e-39,-0.9507224932915037,-0.09447829803235533,-1.4367891631232273e-36,0,70,255.0,255.0,255.0
539,26.950000000000003,14.233973612466459,0.0016323914901510653,-10.0,0.2822369421146512,-3.764751143348412,-8.311498024542e-38,-0.9489563666369996,-0.0805201681527989,-2.176115372788016e-36,0,70,255.0,255.0,255.0
540,27.0,14.2469,-0.1867,-10.0,0.2348332769491665,-3.768428198509063,-2.104039041264319e-37,-0.9471902399824963,-0.0665620382732115,-2.9154415824527525e-36,0,70,255.0,255.0,255.0
541,27.05,14.257458407053576,-0.37519911556671093,-10.0,0.1875176253158782,-3.771426486027538,-2.8719589101710653e-37,-0.9454358253490083,-0.053369462465783876,-1.5623789317418906e-37,0,70,255.0,255.0,255.0
542,27.1,14.265653224543783,-0.5638316547895864,-10.0,0.1402896944142643,-3.7737651447556417,-2.2602769344385107e-37,-0.9436814107155203,-0.04017688665835626,2.6029657961043744e-36,0,70,255.0,255.0,255.0
543,27.150000000000002,14.271488838507198,-0.7525646362291075,-10.0,0.09314948424432484,-3.775444174693374,-2.6899311406665294e-38,-0.9419269960820323,-0.026984310850928644,5.362169485382938e-36,0,70,255.0,255.0,255.0
544,27.200000000000003,14.27496963498041,-0.9413650784457562,-10.0,0.04609699480605975,-3.7764635758407343,3.1018925509445044e-37,-0.9401725814485443,-0.013791735043501022,8.121373174661501e-36,0,70,255.0,255.0,255.0
545,27.25,14.2761,-1.1302,-10.0,-0.0008677739005275739,-3.776823348197724,7.852380060594578e-37,-0.9384181668150565,-0.0005991592360921061,1.0880576863939869e-35,0,70,255.0,255.0,255.0
546,27.3,14.27488392868596,-1.3190361198727296,-10.0,-0.047768276870991305,-3.7765055169872603,1.0718296355702187e-36,-0.9376019520034662,0.013312407654637523,5.830883164904046e-37,0,70,255.0,255.0,255.0
547,27.35,14.27132385249191,-1.5078389587263226,-10.0,-0.09462796910087552,-3.77549210743226,8.435468377084991e-37,-0.936785737191876,0.027223974545367152,-9.71440023095906e-36,0,70,255.0,255.0,255.0
548,27.400000000000002,14.265421811954882,-1.6965737376435521,-10.0,-0.14144685059018025,-3.7737831195327236,1.0038961247429887e-37,-0.9359695223802856,0.04113554143609678,-2.0011888778408527e-35,0,70,255.0,255.0,255.0
549,27.450000000000003,14.257179847611903,-1.8852056777071913,-10.0,-0.18822492133890545,-3.7713785532886503,-1.1576420401323819e-36,-0.9351533075686954,0.05504710832682641,-3.030937732585799e-35,0,70,255.0,255.0,255.0
550,27.5,14.2466,-2.0737,-10.0,-0.23496218134704777,-3.7682784087000414,-2.9305481201113993e-36,-0.9343370927571031,0.06895867521755861,-4.060686587330673e-35,0,70,255.0,255.0,255.0
551,27.55,14.233685078202585,-2.262022004942387,-10.0,-0.281612517831902,-3.7644874460234217,-4.000122651263768e-36,-0.9316763666370393,0.08267983184722161,-2.1761153727874275e-36,0,70,255.0,255.0,255.0
552,27.6,14.218440965488577,-2.4501373103051565,-10.0,-0.328129818010753,-3.7600104255153193,-3.148159657390145e-36,-0.9290156405169757,0.0964009884768846,3.6254635127731873e-35,0,70,255.0,255.0,255.0
553,27.650000000000002,14.200874313673275,-2.6380116131967335,-10.0,-0.37451408188360086,-3.7548473471757333,-3.746591384905296e-37,-0.926354914396912,0.1101221451065476,7.468538562825117e-35,0,70,255.0,255.0,255.0
554,27.700000000000003,14.180991774571984,-2.825610610725543,-10.0,-0.42076530945044555,-3.7489982110046642,4.320378905435079e-36,-0.9236941882768483,0.12384330173621058,1.1311613612877047e-34,0,70,255.0,255.0,255.0
555,27.75,14.1588,-3.0129,-10.0,-0.46688350071128376,-3.742463017002112,1.0936954474386139e-35,-0.9210334621567848,0.13756445836589748,1.5154688662928708e-34,0,70,255.0,255.0,255.0
556,27.8,14.1343045585037,-3.199845460357738,-10.0,-0.5129336518014179,-3.735240698919052,1.4928660969484857e-35,-0.9209725814485554,0.15132826495650367,8.121373174659324e-36,0,70,255.0,255.0,255.0
557,27.85,14.107506685553782,-3.3864126000530854,-10.0,-0.5589807588561406,-3.7273301905064615,1.1749091791852083e-35,-0.920911700740326,0.1650920715471099,-1.3530414027996843e-34,0,70,255.0,255.0,255.0
558,27.900000000000002,14.078406533352009,-3.572567009569564,-10.0,-0.6050248218754518,-3.7187314917643404,1.3982469414878139e-36,-0.9208508200320966,0.17885587813771608,-2.7872965373459622e-34,0,70,255.0,255.0,255.0
559,27.950000000000003,14.047004254100157,-3.7582742793906987,-10.0,-0.6510658408593516,-3.7094446026926895,-1.6123873581607933e-35,-0.9207899393238672,0.1926196847283223,-4.2215516718922395e-34,0,70,255.0,255.0,255.0
560,28.0,14.0133,-3.9435,-10.0,-0.6971038158078366,-3.6994695232915094,-4.081726977743316e-35,-0.9207290586156383,0.20638349131893108,-5.6558068064384125e-34,0,70,255.0,255.0,255.0
561,28.05,13.977295087782608,-4.128209753626676,-10.0,-0.7430688749624441,-3.688805758300366,-5.571452122667563e-35,-0.9178733075686324,0.22016710832680977,-3.0309377325849713e-35,0,70,255.0,255.0,255.0
562,28.1,13.938995492296291,-4.3123690894825355,-10.0,-0.7888911465647012,-3.677452812458828,-4.384820751001817e-35,-0.9150175565216265,0.23395072533468844,5.049619259921418e-34,0,70,255.0,255.0,255.0
563,28.150000000000002,13.898408352918675,-4.495943548525057,-10.0,-0.834570630614608,-3.6654106857668967,-5.218328627460739e-36,-0.9121618054746206,0.24773434234256714,1.0402332293101334e-33,0,70,255.0,255.0,255.0
564,28.200000000000003,13.85554080902737,-4.678898671711724,-10.0,-0.8801073271121646,-3.6526793782245712,6.017511542099666e-35,-0.9093060544276147,0.2615179593504458,1.575504532628125e-33,0,70,255.0,255.0,255.0
565,28.25,13.8104,-4.8612,-10.0,-0.9255012360573676,-3.6392588898318525,1.5233212463534649e-34,-0.9064503033806126,0.2753015763583164,2.1107758359460788e-33,0,70,255.0,255.0,255.0
566,28.3,13.762991890365864,-5.042813125135574,-10.0,-0.970822848348805,-3.625152267879489,2.0792942393721776e-34,-0.9064141882768559,0.2889633017362174,1.1311613612874013e-34,0,70,255.0,255.0,255.0
567,28.35,13.713317745261039,-5.223703842016806,-10.0,-1.0161426548850545,-3.6103625596582303,1.636437382482206e-34,-0.9063780731730994,0.3026250271141184,-1.8845435636885985e-33,0,70,255.0,255.0,255.0
568,28.400000000000002,13.661377654973279,-5.403837996330253,-10.0,-1.0614606556661161,-3.5948897651680767,1.9475067568355138e-35,-0.9063419580693427,0.3162867524920193,-3.882203263505937e-33,0,70,255.0,255.0,255.0
569,28.450000000000003,13.607171709790345,-5.58318143376247,-10.0,-1.1067768506919902,-3.578733884409028,-2.245765881023787e-34,-0.9063058429655861,0.3299484778699203,-5.8798629633232756e-33,0,70,255.0,255.0,255.0
570,28.5,13.5507,-5.7617,-10.0,-1.152091239962673,-3.561894917381086,-5.685112287639528e-34,-0.9062697278618348,0.34361020324780966,-7.87752266314047e-33,0,70,255.0,255.0,255.0
571,28.55,13.491964550753929,-5.939359345831047,-10.0,-1.1972877316423174,-3.544361170181682,-7.760031745221952e-34,-0.9015899393239127,0.3577396847283447,-4.221551671891091e-34,0,70,255.0,255.0,255.0
572,28.6,13.430975126659549,-6.116124342450274,-10.0,-1.2422502338950656,-3.526120948908251,-6.107267454828642e-34,-0.8969101507859906,0.37186916620887983,7.033212328762252e-33,0,70,255.0,255.0,255.0
573,28.650000000000002,13.367743427188202,-6.291959666153977,-10.0,-1.2869787467209177,-3.5071742535607933,-7.268194164595988e-35,-0.8922303622480685,0.3859986476894149,1.4488579824713613e-32,0,70,255.0,255.0,255.0
574,28.700000000000003,13.302281151811236,-6.4668299932384565,-10.0,-1.3314732701198737,-3.487521084139309,8.38131236988518e-34,-0.8875505737101463,0.40012812916995,2.1943947320664974e-32,0,70,255.0,255.0,255.0
575,28.75,13.2346,-6.6407,-10.0,-1.3757338040919307,-3.4671614406437987,2.1217127904204643e-33,-0.8828707851722335,0.4142576106504947,2.9399314816615804e-32,0,70,255.0,255.0,255.0
576,28.8,13.164717106618415,-6.813536691540254,-10.0,-1.4194342250819276,-3.4462350513937756,2.896083274151563e-33,-0.865146054427618,0.4227979593504203,1.5755045326276928e-33,0,70,255.0,255.0,255.0
577,28.85,13.092671348100758,-6.985316388182133,-10.0,-1.4622484095346937,-3.4248816447087562,2.279263243683236e-33,-0.8474213236830027,0.4313383080503459,-2.624830575136042e-32,0,70,255.0,255.0,255.0
578,28.900000000000002,13.018507036273897,-7.156017739053884,-10.0,-1.5041763574502292,-3.4031012205887405,2.712526990154837e-34,-0.8296965929383873,0.43987865675027144,-5.407211603534853e-32,0,70,255.0,255.0,255.0
579,28.950000000000003,12.942268482964687,-7.325619393283761,-10.0,-1.5452180688285337,-3.380893779033728,-3.1279483598516946e-33,-0.8119718621937718,0.44841900545019703,-8.189592631933664e-32,0,70,255.0,255.0,255.0
580,29.0,12.864,-7.4941,-10.0,-1.5853735436696048,-3.3582593200437216,-7.918339932917905e-33,-0.7942471314491595,0.4569593541501149,-1.0971973660332276e-31,0,70,255.0,255.0,255.0
581,29.05,12.783742222772409,-7.6614402880079515,-10.0,-1.6248633680299736,-3.3353226242432203,-1.0808329922084057e-32,-0.785345842965562,0.4605084778699109,-5.8798629633216786e-33,0,70,255.0,255.0,255.0
582,29.1,12.701521080937402,-7.827629304821228,-10.0,-1.663908127966162,-3.31220847225673,-8.506326229250082e-33,-0.7764445544819645,0.4640576015897069,9.79600106766794e-32,0,70,255.0,255.0,255.0
583,29.150000000000002,12.617358827716194,-7.9926581776305285,-10.0,-1.702507823478171,-3.2889168640842494,-1.0123288544159772e-33,-0.767543265998367,0.46760672530950287,2.0179988431668046e-31,0,70,255.0,255.0,255.0
584,29.200000000000003,12.531277716329987,-8.156518033626558,-10.0,-1.7406624545659999,-3.265447799725779,1.1673662202418254e-32,-0.7586419775147695,0.47115584902929886,3.0563975795668157e-31,0,70,255.0,255.0,255.0
585,29.25,12.4433,-8.3192,-10.0,-1.7783720212296463,-3.2418012791813204,2.955164694125116e-32,-0.7497406890311762,0.47470497274910173,4.094796315966753e-31,0,70,255.0,255.0,255.0
